Timestamp,EMG (mV),Accel_X,Accel_Y,Accel_Z,Gyro_X,Gyro_Y,Gyro_Z,Label (Gesture),PAM Pressure (kPa),Valve State (0/1),Airflow Rate (L/min),Muscle Contraction (%)
1738851054,620,0.288262844,-0.033951839,9.5611483,-0.117125287,0.089803241,-0.197961566,1,49.96320951,1,1.026041183,79.6537291
1738852139,737,-0.78577478,0.670087329,9.827312346,-0.025303957,-0.429851787,0.470007643,4,96.05714451,0,4.729244556,48.15223515
1738852206,802,0.488903112,0.713845386,9.601265371,0.260137781,-0.487536653,-0.396764272,3,78.55951534,0,3.324686239,11.7308189
1738850608,476,0.126183792,0.270778942,9.841090254,-0.09298038,0.49529987,0.057017182,1,67.89267874,0,2.007075266,12.51857922
1738850258,929,-0.241081366,0.647714539,9.80436368,-0.034564629,-0.158569849,0.094921006,4,32.48149124,0,1.126724327,68.55652872
1738849659,827,0.430202021,0.633694364,9.371491407,0.095303412,0.399365198,-0.009683586,2,32.47956163,0,4.073113352,43.03058949
1738850142,671,0.049832948,0.743117793,9.290487262,-0.321855146,0.019651045,-0.458899,0,24.64668897,1,3.290327402,20.05247267
1738852021,708,-0.270913427,-0.027177106,9.98658778,0.307634413,0.053238325,0.375873927,2,89.29409166,0,2.900574914,49.15945467
1738851966,772,0.612339095,0.887315038,9.12522228,-0.090781122,0.342539972,0.269643823,1,68.08920094,1,4.522516624,6.420893708
1738851153,994,0.339270257,0.259787575,9.90709122,-0.392508758,-0.165066287,0.22061129,4,76.64580622,1,4.048687451,58.19714019
1738852017,777,-0.324442943,0.224618553,9.307039613,-0.460025996,0.022762407,-0.382328383,3,21.64675954,0,1.182536959,26.89934044
1738849781,593,0.900893671,-0.242417821,9.927427616,-0.227730382,0.047737824,-0.322302572,0,97.59278817,0,1.902749305,79.75591006
1738850468,581,-0.397064595,-0.960151157,9.771370251,-0.310539387,0.314337579,-0.492166775,3,86.59541126,1,1.618201129,31.03619589
1738850347,477,0.696372828,-0.985365952,9.097087435,-0.409149261,-0.347194705,0.174504515,1,36.98712885,0,3.847758317,45.52201491
1738852574,710,0.502602491,-0.212664261,9.510464022,0.033085752,0.238377441,-0.067577853,2,34.54599738,0,0.650895956,1.162053991
1738853096,386,-0.411187616,0.955362042,9.432876484,-0.150735808,0.138139028,0.010857739,3,34.67236079,1,3.064503582,7.244688779
1738850626,755,-0.656942904,-0.644363483,9.987730017,0.018673971,0.469284634,0.02771956,0,44.33937944,1,3.931064086,39.24935564
1738852904,836,-0.752644759,0.895777056,9.054622881,-0.169592135,-0.356291757,-0.084845799,2,61.98051453,0,4.445445365,47.99388347
1738851297,414,-0.606704298,0.382102928,9.786929375,0.361581319,-0.014026838,0.038644116,1,54.55560149,1,2.039367869,60.00205481
1738850637,605,-0.438229664,0.477014146,9.722852537,0.399131838,-0.004511956,-0.452644101,3,43.29833122,0,4.195657871,29.16625787
1738850479,705,0.245654626,0.26063613,9.742067752,-0.079106449,0.418344333,-0.228529189,1,68.94823158,0,0.997842816,69.49818861
1738852602,776,0.06699704,-0.680631447,9.204017933,-0.339877754,0.27289684,-0.430786563,0,31.15950885,0,4.309035313,86.01223972
1738850670,975,0.378679976,0.743259137,9.546712743,0.051702397,-0.312293844,-0.040562681,0,43.37157188,1,1.07369898,77.98509889
1738850195,486,-0.567798233,0.322624462,9.047318977,-0.425303102,0.009164878,0.058454467,4,49.30894746,1,2.287792808,3.961882535
1738854320,305,-0.833138366,0.62895745,9.448270719,0.077295067,-0.383579406,0.340963179,3,56.48559874,1,4.087829146,48.05069473
1738850054,576,0.740740773,0.00833379,9.290132196,0.483395666,-0.086501088,0.184067038,0,82.81407691,1,1.174628423,10.49301784
1738853619,489,0.490457565,0.329055959,9.76183402,-0.410575349,0.323520995,0.49167846,3,35.97390257,1,1.531631279,24.20450159
1738849886,333,-0.126264988,0.12555003,9.188439665,-0.302665247,-0.499768503,0.426625732,3,61.13875507,0,3.750136558,98.66625933
1738854237,549,-0.137428347,-0.143325619,9.284951924,-0.433575238,0.115172707,-0.429261725,0,67.39316551,0,3.740164414,14.24955429
1738850039,630,0.494494972,-0.011679144,9.375153944,0.192485672,-0.172018988,0.283636833,1,23.71603302,0,3.385164348,49.88881535
1738851515,322,-0.87590109,-0.130456732,9.708428787,0.227066866,-0.249166018,-0.232989108,2,68.60358815,0,3.622768,61.81557343
1738849946,893,-0.208583578,-0.389790254,9.169039344,-0.413023864,-0.264349763,-0.195817769,1,33.64192989,1,2.942259995,70.24649705
1738854395,720,-0.908721428,-0.714207739,9.343528896,0.471443967,-0.322047763,-0.001029446,0,25.20412744,0,1.633095765,55.96486835
1738854419,725,-0.572892898,0.903927425,9.778230224,-0.114189671,-0.253623775,-0.105737147,0,95.91084298,1,2.055631971,0.977084742
1738851308,781,0.219513022,-0.030711606,9.682487622,-0.04337668,0.296094496,-0.246986399,4,97.25056265,0,1.317189726,32.64613082
1738852068,350,-0.65702708,-0.495699606,9.877715665,-0.419330914,-0.248044033,-0.296667469,1,84.67178785,1,4.588027526,51.77116434
1738853138,493,-0.845122843,-0.189996038,9.563512162,-0.485295604,-0.108745842,0.050628502,0,44.36910153,1,3.125263076,8.786649914
1738853868,492,0.231266244,-0.145464397,9.621989008,-0.007708401,0.273886483,0.280410772,1,27.81376912,0,2.303831375,35.06269312
1738854519,374,-0.490853305,0.126188727,9.281644846,0.200459937,0.153451551,0.35961234,2,74.73864212,0,2.579026116,3.320310879
1738851652,452,0.730181108,-0.69344364,9.273481326,0.398891433,-0.277515155,-0.001115997,3,55.2121995,0,4.762775028,7.857849716
1738853152,554,-0.190922863,-0.888424356,9.842309853,-0.33242245,-0.093807833,0.288571988,0,29.76305879,0,1.190081314,39.69232762
1738853674,738,0.250002379,-0.023031057,9.458966919,-0.498238849,-0.193149113,0.152790495,3,59.61415281,1,3.138034244,13.2715754
1738849582,347,0.073782916,0.016764059,9.908632087,-0.008370191,0.102608381,0.413485014,1,22.75108169,0,2.776499055,56.75408483
1738849618,593,-0.047010347,-0.762007429,9.711757851,0.092224435,-0.347718777,-0.136962399,2,92.74563217,0,3.251544059,68.94649691
1738850391,884,-0.754769392,-0.130707022,9.383657732,-0.211173457,0.466361463,0.136860494,3,40.70239853,1,0.581495827,80.05866991
1738853459,857,0.316329826,0.259532649,9.399454665,-0.192795279,0.214328317,-0.229586954,1,73.00178275,0,4.42455759,20.01502442
1738853326,918,0.614275975,-0.227952367,9.802978029,-0.302212091,0.420007715,-0.21947103,0,44.93688609,0,4.694532271,16.74825823
1738854188,421,-0.02681935,0.530017046,9.438975376,-0.130093618,0.379329567,-0.388914357,3,61.60544169,0,3.043099326,10.45678403
1738852714,694,-0.142035706,0.853085884,9.693173096,-0.433838061,0.407789897,-0.113763104,2,63.73682235,0,3.634928707,63.64302495
1738852212,688,0.642024695,0.598872661,9.772601367,0.259673084,-0.449662618,-0.115096289,0,34.78835644,0,4.651247215,70.64757265
1738854168,882,0.212253679,0.06979212,9.347410269,0.041198291,0.393378534,0.307070108,0,97.56677022,1,3.682573854,3.158614483
1738854181,679,0.551867329,-0.360560796,9.958005244,-0.0443659,0.284762298,0.434514115,3,82.01062587,0,1.186425693,93.62122462
1738852004,791,-0.009808036,-0.316975156,9.43998816,0.045811316,0.334422099,0.339726676,1,95.15991533,0,3.093297621,5.197128365
1738852399,563,0.706558181,-0.096755268,9.996609515,-0.000338894,0.287504578,0.178601245,1,91.58618803,0,3.230217709,54.12963353
1738850697,516,-0.676904744,-0.89054514,9.485981113,-0.413541925,0.140999421,0.408892874,1,67.8319983,0,2.408588021,70.90605195
1738852631,861,0.33100765,-0.218519548,9.223113344,-0.398945096,0.12411662,0.193517838,3,93.7499388,0,3.81399906,87.09691237
1738850656,416,-0.95850009,-0.839669504,9.112777384,0.383238951,0.151814101,0.354830429,0,27.07940016,1,4.704651566,71.40869321
1738849721,870,0.617759341,-0.607799243,9.218201917,0.152824238,-0.406149072,0.119236532,4,35.67862899,0,4.665058308,80.17280831
1738851223,335,0.415733113,0.044049903,9.685554984,0.421036507,0.451599302,-0.216433808,1,23.61818311,1,2.528777171,33.94501925
1738852123,767,-0.450751857,-0.443903807,9.967210104,0.046704525,0.07312658,-0.386333953,0,46.02642646,1,1.009571206,81.48251137
1738851930,688,-0.567999162,0.168085956,9.839912353,-0.204878883,0.240313003,0.341507224,0,51.09418318,0,4.931785395,8.011484638
1738853948,867,-0.231578333,0.449300231,9.782801655,-0.248351348,0.128325485,0.302338778,0,41.70792254,0,4.275041389,89.48166561
1738853810,523,-0.775782267,0.571196606,9.320226207,0.000705328,0.496509628,-0.3633492,2,86.29900073,0,1.060982065,54.75923762
1738853415,824,-0.056879028,0.72887441,9.195477787,0.212155956,-0.217534447,0.003497609,4,48.54026614,0,4.643788472,81.729777
1738849576,448,0.475872015,-0.95953914,9.535663155,0.381684447,-0.176400997,0.136563451,4,42.47476077,1,4.414533629,45.23182845
1738852186,344,-0.319361265,0.444273596,9.65781824,-0.320816987,-0.396377099,-0.187572443,4,63.41568665,0,2.834771257,64.35776952
1738852893,830,0.821474654,0.630215894,9.79364013,-0.194644988,-0.429007319,-0.229817471,0,31.273938,0,3.160739461,52.64026609
1738851768,795,-0.199820073,-0.40305628,9.319595297,0.377079583,-0.473995906,0.027160568,0,84.17575846,0,2.295512167,73.15895218
1738853235,447,0.574082345,-0.402624482,9.098686495,-0.368494609,-0.24655788,-0.291752361,4,25.96405149,0,0.746427375,8.162998203
1738854277,572,-0.833637165,-0.04536624,9.176385128,0.114805307,0.375420571,-0.189857742,4,98.95095493,0,2.008387587,6.035208399
1738851460,331,-0.895310512,-0.804120808,9.261086839,0.269830499,0.43968504,-0.038888538,1,81.77958154,0,4.112840519,24.7103234
1738849637,749,-0.845682956,0.426066977,9.627045258,-0.341898784,0.452620628,0.335396217,1,35.89725452,1,0.520844104,15.95446801
1738849780,737,0.912788206,-0.868743148,9.175362047,0.381040632,0.335293012,-0.386611968,2,20.44176937,1,2.000746273,87.17835666
1738849849,805,0.127638539,0.907178963,9.037068461,0.076583267,-0.310632066,-0.188373043,1,85.23691428,0,2.291759121,21.92139874
1738850554,488,-0.855270976,-0.499998538,9.880998506,-0.481682361,0.265865473,0.38016627,3,76.54858751,0,2.918280213,97.58652558
1738851691,806,-0.883665694,0.792804934,9.740979498,-0.004678768,-0.444905084,-0.279084314,2,78.32057344,0,4.639350274,33.68957918
1738850264,691,0.243305621,0.886473293,9.275610094,-0.011767765,-0.304309019,0.069043776,0,81.70162773,1,2.058556975,18.21179157
1738852354,526,0.803597369,0.156651244,9.329884012,-0.476098824,0.18026049,0.33202147,3,25.92357214,0,2.061289409,78.96985071
1738852080,508,-0.90876939,0.145889636,9.465253131,-0.277884955,0.478125556,0.446032946,4,48.67725828,1,3.818755616,65.87077755
1738853305,730,0.428564576,0.172025447,9.446939604,-0.452601068,-0.262020963,-0.483927256,2,29.26952476,0,2.534980734,49.81957165
1738852874,604,0.995334535,0.050120043,9.768628621,-0.443022674,0.108805101,-0.271392938,2,89.04827407,0,1.510721703,55.53635509
1738852734,674,-0.671705057,0.119050293,9.033273252,-0.336781936,0.486128557,-0.155436264,4,69.86385015,0,2.535977823,71.92017783
1738853736,343,0.783521142,0.002630159,9.791813252,-0.253665073,0.024780438,-0.436064401,1,46.47184199,0,1.133856592,22.84547413
1738851168,641,-0.561852594,0.536379688,9.928371209,-0.387634307,0.218929249,0.368743631,1,25.08466802,1,1.293741439,99.63339161
1738852577,596,-0.436534751,0.137694113,9.744094845,-0.122131808,0.466106398,-0.076380323,2,44.87858574,1,2.742654977,97.47931621
1738850966,862,0.309822828,0.489072688,9.863100519,-0.453200431,0.388463028,-0.440049397,1,46.01466576,0,2.385164523,65.03256863
1738850316,483,0.534245084,0.618265421,9.507685527,-0.19461849,-0.459845316,0.128446469,1,78.36849427,0,4.616806555,19.95424509
1738850208,743,0.666384037,-0.18101931,9.804043682,0.289946223,0.492845408,-0.055795489,3,71.00459771,1,2.130772546,68.02282424
1738854350,690,-0.87587834,-0.590824453,9.967259234,-0.26015838,0.096506521,0.116267655,3,90.97701941,1,3.112647576,7.219840898
1738853402,667,-0.87773227,0.416260116,9.176981501,0.240783032,-0.177153206,-0.106408901,3,57.77719401,1,3.345189296,3.065250221
1738853706,321,0.415855661,0.912082365,9.307103934,0.119178805,0.134910318,-0.288241607,4,29.56753968,1,0.558925055,25.76828885
1738850021,968,-0.788166232,0.138292196,9.903777907,0.4532502,-0.037538704,0.499290994,4,77.05958298,0,3.485918174,46.26229567
1738849710,574,-0.260577378,0.522652655,9.82921532,0.429231292,-0.162281879,-0.397240492,1,80.86280389,1,1.301161851,86.82725054
1738850848,389,-0.203012595,0.410170194,9.478286842,-0.053847186,-0.128556317,-0.403818436,3,64.90217581,0,4.824816429,72.71690698
1738850050,761,-0.387936066,-0.915993187,9.232402277,0.424909152,0.358860069,-0.032638168,1,81.6773744,1,1.168982275,74.27065212
1738854293,815,-0.985396919,-0.953666034,9.138505425,0.261207833,0.325377386,0.239949109,1,59.50364771,1,2.365808557,42.54933344
1738852493,831,-0.553439403,-0.86354932,9.978463775,0.425150017,0.210771129,0.005453077,3,61.81862635,1,0.884073506,34.59349925
1738853009,447,-0.166204117,0.09358142,9.280137684,-0.028853874,-0.113784841,0.28746341,3,54.20328147,1,4.985934133,37.1038763
1738849926,310,0.204295311,0.649565135,9.442998721,0.304561158,0.040669727,0.248928391,1,22.03353014,1,2.759877546,98.76495637
1738849632,692,-0.916753721,0.920901266,9.393208082,-0.256771625,-0.112874655,0.139914659,2,28.63131416,0,3.179232578,4.010919141
1738851106,542,-0.984352563,0.69412059,9.802994557,-0.31656741,0.194551388,-0.373579138,0,22.51433485,0,0.801844148,86.70314961
1738851222,488,-0.835399002,0.68217185,9.438454308,-0.166729963,0.228242365,0.20872628,0,70.9128329,1,3.874822117,57.86754086
1738851684,407,0.926606075,0.612100813,9.135523191,0.068880571,-0.049194766,0.247788502,0,45.14847849,1,1.444575169,43.86154192
1738853992,699,0.612996083,-0.608931653,9.88288256,-0.087648033,0.275709813,0.382138709,2,60.68565529,0,4.541244302,72.52576604
1738850018,569,-0.672590914,0.922130692,9.872661176,0.207217107,-0.054850584,-0.221720832,0,92.60531791,1,1.423128382,48.66689414
1738849801,639,0.170538907,0.299682835,9.068387493,0.052095272,0.083412524,0.097292588,1,39.94337833,1,1.358094743,87.34232381
1738850484,962,0.761296486,-0.502756189,9.031143785,-0.306577799,0.496556837,0.104495273,2,52.83063384,0,0.664473505,90.0701864
1738850888,364,0.711474798,-0.830342373,9.519762097,0.344393343,0.076857702,0.009087334,2,80.44409108,1,2.624301253,42.17209269
1738854077,986,0.511379894,0.070042962,9.942346368,-0.279529626,0.089644427,-0.460264105,4,38.30385324,1,3.0417851,27.68277972
1738850891,880,-0.04553083,0.700906932,9.922438362,-0.282605319,-0.371453933,-0.432908816,1,26.15839279,0,0.795688877,59.23503286
1738850959,878,-0.284083378,-0.521811989,9.729273535,-0.450083308,0.442637258,-0.149393595,2,43.18011623,0,3.989874275,91.23633456
1738850643,579,0.053948538,-0.515809828,9.440931169,-0.49871319,0.142828091,0.436396031,1,32.89770298,0,2.539799756,21.0662189
1738853762,641,-0.768072429,0.986753648,9.047082854,-0.140469287,0.207604527,-0.176807057,3,94.37581219,1,2.859756212,62.29665836
1738850295,511,-0.583147389,0.94878406,9.139460139,0.287157009,0.123030558,0.211933241,1,84.64963037,0,2.483432361,63.15602201
1738851876,667,-0.994731799,-0.213051093,9.507305956,0.094387445,-0.152749164,-0.095037659,0,70.67230052,0,2.303433774,73.31130224
1738853154,312,0.188412626,0.098789615,9.125916315,0.044625918,-0.04360753,-0.132200347,3,89.71684722,0,3.018381491,13.15676851
1738851676,891,0.730103828,-0.770548234,9.320723541,-0.209960097,-0.244033473,0.138238025,3,84.29376615,0,1.198581107,71.58249647
1738851647,843,0.850052026,0.991730421,9.394066048,-0.464593271,-0.060274871,0.224601989,2,34.92560471,0,1.318676587,90.90325207
1738849793,310,-0.842497857,-0.991937417,9.473806959,0.060338884,0.042870275,-0.185094451,0,91.40471988,0,4.378035295,17.96831089
1738851904,605,0.782835853,0.667793707,9.794403606,0.424756801,0.18706989,0.145813704,4,63.14737935,1,4.75751958,23.75433249
1738850923,416,0.242714189,-0.944976646,9.642503182,0.012623161,-0.490825714,-0.250182055,1,84.59521241,1,2.179891923,97.1395094
1738850610,847,0.466361398,0.564283986,9.706993453,0.312772353,0.338355355,-0.181412898,1,91.68730399,0,1.718351029,18.09769527
1738854369,989,0.51512685,0.212895456,9.331110319,-0.110439877,-0.450603588,-0.043056398,4,45.440278,0,3.397997945,85.43850934
1738849752,982,0.504115253,-0.234438576,9.545755133,-0.086537292,0.010525077,-0.390539677,4,28.80415396,0,2.33930377,49.22778564
1738851833,516,-0.508342949,0.818279543,9.183726891,-0.326662984,-0.106275298,-0.203816587,0,38.234813,1,0.6142386,24.72310744
1738854302,533,0.079178512,-0.15621002,9.978724889,-0.344093911,0.222358895,0.070200912,2,54.16862309,1,1.202686688,87.07499013
1738851773,888,0.415311645,0.574758219,9.587815585,0.280509418,0.26899887,-0.414520562,2,85.44118127,1,3.72187503,44.5305255
1738854324,665,-0.993598844,-0.943926455,9.393037299,0.430674535,0.410556641,-0.136114245,3,88.85844666,1,3.465157739,51.48173539
1738852372,754,0.025671866,0.94006016,9.900408012,-0.139743727,-0.37413848,-0.254080256,1,20.55617044,1,0.621931966,35.92333694
1738852703,366,0.835067485,-0.717226446,9.838182623,-0.129071493,0.001618505,-0.27076721,4,60.85978421,1,1.498874729,59.29508514
1738853809,965,-0.847486248,0.455914505,9.226299672,0.07527257,0.488928458,-0.14919995,0,53.39288025,1,1.539836585,16.35238726
1738852660,672,-0.913448043,0.436134662,9.102294081,0.069347643,-0.378087984,-0.288193238,2,37.76862484,1,3.523517346,39.10815367
1738851526,723,-0.235683994,0.068420828,9.137293745,-0.30612294,0.175025465,0.406410227,2,29.58922939,1,0.58869742,96.94123223
1738850928,815,0.144577747,0.168975677,9.324628985,0.22981469,0.35016372,-0.373138747,4,47.00921371,0,0.968488619,25.81334327
1738853521,671,-0.403369092,0.948706275,9.354135913,-0.252351592,-0.207963381,0.36358224,2,95.43277631,0,4.099622384,65.67366645
1738853615,576,-0.950060469,0.3774082,9.126934459,-0.459778494,-0.229203734,-0.299608896,2,45.85623456,0,1.303450979,32.51900642
1738853998,549,0.599644329,0.826832138,9.316781967,-0.044921857,-0.371661566,0.166242758,2,61.50324974,0,3.437357485,77.34731257
1738853110,918,0.362184931,-0.869462791,9.477165188,0.064950701,0.035083539,0.202976259,2,76.24151671,1,1.571822515,13.08736607
1738850517,713,0.891935111,-0.048343635,9.205655259,-0.486823132,-0.000342597,-0.437253179,2,49.09036819,1,0.947486267,96.98210451
1738849732,928,-0.034820321,0.983947773,9.34787445,-0.32636148,-0.205292024,-0.073012029,1,97.74256662,0,1.594274859,45.37895414
1738853251,736,-0.267370658,0.083872621,9.817323196,-0.277137215,0.072652051,-0.327747452,4,96.9957836,1,3.750201193,23.60504633
1738853374,963,-0.612763049,-0.879448047,9.730623867,-0.008524723,-0.317367651,0.415763282,3,40.14258367,0,4.350634106,7.349674733
1738854431,371,0.515350478,0.591418828,9.892242175,-0.281942733,0.205527727,0.062228832,4,59.77988047,1,4.235989391,16.97579051
1738853452,318,0.869860462,-0.490271172,9.340956148,-0.269002995,0.378175074,0.485940523,4,44.07026479,0,2.287325883,51.97739486
1738854040,975,0.468442568,0.050697363,9.667609858,-0.277342374,0.03756913,-0.28191414,4,42.78723955,1,3.506383115,33.70031764
1738852791,455,-0.076316516,-0.737056453,9.518583583,0.260367308,-0.101275565,0.310251385,1,22.95095579,1,1.422429329,82.88833659
1738852527,671,-0.136591938,0.133373978,9.647730225,-0.377687518,-0.413454275,0.195039189,3,68.76514672,0,1.819164786,43.08875237
1738853133,303,0.560471139,0.128128888,9.522331502,-0.492358738,-0.242403726,0.037818347,0,60.21432186,1,4.533511183,24.87142726
1738852440,337,0.251759831,0.580509258,9.734464371,0.029501916,0.366110581,0.037905584,2,24.1183001,0,0.558508656,61.71449866
1738852128,735,-0.942208898,-0.888840612,9.606576896,0.047216969,-0.190489991,-0.329688209,0,42.29171714,0,0.884788389,70.67772169
1738850972,327,-0.475625613,-0.73693963,9.716903092,0.436818082,0.260596053,-0.007126215,1,92.66127088,0,1.435488148,16.70419079
1738853460,645,-0.865990788,0.248588397,9.877611344,0.1780191,-0.158593137,-0.484629238,4,39.16495125,0,0.619394917,16.76192163
1738854226,842,-0.211131507,-0.119677703,9.707804226,-0.450020851,-0.097968581,-0.108899051,2,31.59158977,1,1.316459458,3.667142693
1738854455,657,-0.80443894,-0.435142454,9.127360875,0.472698717,-0.346653962,-0.122482822,1,59.15622082,1,3.123687024,73.64020151
1738851413,685,0.908125398,-0.714629695,9.988178104,0.253736814,-0.439641886,-0.163008311,0,98.85203633,1,2.396410478,66.38045276
1738849561,855,0.397250394,0.054344841,9.898111031,-0.093630434,0.02119659,-0.468505647,4,39.36442172,0,4.5170227,47.46308757
1738852447,625,0.361167194,0.485412511,9.645180834,0.194565477,-0.23375412,-0.111783979,0,73.77084379,1,4.178496028,84.4170449
1738852400,780,-0.381482656,0.841336041,9.850938633,0.492832591,0.285535538,-0.304891298,4,80.92956923,0,2.038178083,80.5670153
1738853217,761,-0.105913457,-0.950692326,9.248766757,0.306981436,0.011012778,0.037571207,1,39.01100352,1,1.66740545,58.53543644
1738849697,696,-0.489710691,0.584514161,9.95038374,-0.396394196,0.076550087,-0.081586812,1,78.25730789,1,2.208615837,86.82712805
1738851657,640,-0.898499368,0.786299772,9.348182459,-0.224634504,0.176617391,-0.048640056,0,49.42265062,1,3.156327241,20.584121
1738852696,894,0.473980383,0.482997949,9.132402169,-0.073154016,0.10109163,-0.074057377,3,70.58446645,0,1.706286384,11.19196194
1738850394,398,-0.555611151,-0.536009335,9.917524471,0.093171163,-0.417363235,0.354271103,3,70.68237686,1,3.308670085,26.97496115
1738850681,914,0.313384194,0.948536512,9.845556269,0.08204498,0.465446172,-0.116835644,3,62.86197473,1,2.342352435,5.708685609
1738849704,757,0.864258277,0.530259511,9.041322615,0.217301258,-0.436014761,-0.409181736,3,27.2231816,0,2.984212314,53.1169528
1738853144,734,-0.279682851,-0.282102892,9.378789427,0.386732744,0.10641627,0.328740005,3,86.82419965,1,2.462569381,93.66056923
1738850605,944,-0.677058036,-0.159028733,9.572580847,-0.117983949,0.263091652,-0.474665454,3,45.6624052,0,1.825095918,3.934354067
1738851143,716,0.467239744,0.723701101,9.315606401,0.491894037,-0.01819266,0.146901698,1,34.92148083,1,4.768039881,12.2109914
1738852561,693,0.873811848,-0.899895603,9.906440007,0.026466346,-0.140437968,-0.480885564,1,23.26201132,0,3.936226074,45.21990283
1738851582,343,0.394372258,-0.073680354,9.175621812,-0.032703502,0.215833962,0.050452987,4,67.27143546,0,1.130509291,93.38750175
1738852971,343,-0.704228829,0.53861559,9.575488109,0.162963638,-0.021521719,0.429498933,4,74.20514895,1,4.408105892,31.6156105
1738851360,551,0.891672875,0.116271868,9.222392685,-0.134568273,0.057676236,0.310955821,1,21.32702631,0,2.693440392,50.72348087
1738852249,541,0.026326362,0.736947104,9.325811313,-0.038127835,-0.086936968,-0.047795218,2,60.96744466,0,4.525485021,4.157285905
1738852592,438,-0.070442782,0.699008158,9.977425163,-0.401897828,-0.281157617,0.214253695,0,38.11966202,0,4.099348652,14.8343201
1738850025,670,0.104871272,0.686989572,9.785310769,0.482072568,0.280244139,-0.040620717,3,71.61382323,0,2.41346077,98.6630123
1738852842,863,0.698404421,-0.334867268,9.610982193,-0.248423231,0.074239023,0.290808124,2,33.94931432,0,0.601111887,96.51186964
1738853627,742,0.640434936,-0.899760523,9.389656415,0.184181789,-0.129084668,0.48620084,0,75.27501905,0,1.709048117,0.493998093
1738853049,975,-0.010488361,0.511160537,9.123845543,-0.066408985,0.256777545,0.064283318,4,50.9388277,1,2.937353966,95.18117854
1738849832,652,-0.315282768,0.1494918,9.366606979,-0.186157161,-0.435601361,0.13682101,3,94.9383991,0,3.350651989,63.91199378
1738851294,631,0.424145924,0.611804478,9.993172138,-0.473208541,0.153197069,-0.443136522,2,31.00167553,0,1.660494584,86.79182945
1738854177,401,0.061323792,0.261800936,9.706477398,0.435609779,0.056482126,-0.458282245,2,47.28530808,1,1.127102333,45.47398556
1738852439,338,-0.19374216,0.049206073,9.518901767,0.491760319,-0.478127691,-0.243832581,1,29.0778817,1,4.257186066,51.55960286
1738851494,864,-0.152142548,-0.963738985,9.77988602,-0.365140278,0.231640782,-0.318343663,1,93.97548946,1,4.929809813,48.88465803
1738849653,668,-0.002744325,0.477267146,9.136281727,0.101078059,0.487260024,0.21304035,2,90.18714827,1,2.86560582,66.68642575
1738852357,347,-0.170103615,0.546134921,9.751745588,-0.312308678,0.199754571,-0.055369624,3,40.63533022,1,1.272556786,13.96512548
1738853123,870,0.546677079,0.199213948,9.632680546,-0.462698596,0.318616862,-0.108824328,2,72.79872368,1,1.725382969,2.997358987
1738853237,967,0.608415642,-0.498342532,9.606553952,0.018481193,-0.030520396,-0.219080863,0,85.37777602,1,0.582758044,30.79299416
1738853214,329,0.067734149,-0.968788081,9.876548302,-0.190466142,0.02350865,0.355321069,4,64.41606493,0,4.61434463,70.46807627
1738850083,776,0.812312033,0.722550996,9.45869428,-0.2552903,-0.224253708,-0.327365811,0,62.37204627,0,1.029879873,20.18534521
1738851439,553,-0.972737882,0.875137341,9.137680366,0.123066136,-0.483917936,0.254010268,2,39.34818327,1,3.09432414,67.34324333
1738850234,817,-0.162012894,0.439868007,9.459520497,-0.431678153,0.433409827,-0.196101088,3,27.44822142,0,1.733248493,96.99120461
1738853347,313,-0.276481162,-0.816446534,9.784222875,-0.158352892,0.120377854,-0.496639826,0,91.77726064,0,2.993801011,9.390071579
1738853497,917,-0.342968808,0.279167458,9.162703264,0.087522277,-0.108254064,-0.119251642,2,92.03344457,0,3.431391748,67.26021182
1738854219,530,0.49643362,-0.424514152,9.916561721,0.305595271,-0.181341875,-0.327959248,0,70.64811658,1,4.233838117,44.37502193
1738851571,588,-0.22513609,0.445615163,9.546108511,0.415347363,0.263377297,-0.222598092,4,47.12238328,1,1.428895723,86.81422544
1738850649,992,0.465704558,0.510031113,9.793561347,-0.452313304,0.005635807,0.228975248,2,47.93676597,0,0.549481229,17.71497894
1738850382,461,0.837079969,0.199738379,9.084415116,0.011132192,-0.387356224,-0.064551086,0,78.07645431,1,1.115985335,69.26259522
1738852358,641,0.358513858,0.728872911,9.482530672,-0.340422421,-0.141862722,-0.433116677,0,91.7688208,0,4.550083888,83.81152896
1738853382,672,0.304724566,-0.816409988,9.411210382,0.2044662,0.161661984,0.108406111,4,90.96691394,0,4.432505349,94.46142195
1738853934,392,-0.901037608,-0.463654519,9.093713128,-0.447673342,-0.40707141,-0.314887859,0,82.39004367,0,3.18835896,68.32480283
1738853444,984,0.57084685,0.996065296,9.259498908,-0.463027518,-0.170094694,-0.361075775,1,71.36253169,0,3.202325872,49.7174764
1738850317,446,-0.864968406,-0.689099786,9.510574767,-0.368834192,-0.389255943,-0.302549083,4,26.7311972,1,3.492665035,61.78472402
1738852320,473,-0.336449294,0.421312955,9.023277646,0.348766794,0.207131884,-0.136800194,0,32.93029713,1,1.289170754,86.89049845
1738853881,833,-0.134847522,0.910345366,9.602646468,0.160591713,0.07183983,0.079990442,0,91.88433508,1,4.614853757,57.06097466
1738852848,823,0.268298559,0.809266248,9.630502419,0.135192263,0.132713839,0.129905561,3,68.51432477,0,2.384467362,3.03870597
1738851747,366,-0.630023804,0.845165438,9.280168364,0.088304685,0.0982092,-0.293087906,0,20.73576413,1,2.224123377,93.09486955
1738851910,891,0.778827811,0.936809034,9.662103551,0.083937324,-0.15265176,-0.353376258,1,28.11772343,0,2.835129674,68.9526751
1738852978,927,0.277023625,-0.505468943,9.161709906,-0.180313783,-0.048696736,0.003096953,2,73.08014153,1,0.71134685,67.65133858
1738853532,913,-0.268923074,-0.015195908,9.854200245,0.358424372,0.108899451,0.227949001,0,20.40492671,0,1.248275159,21.56751524
1738850464,543,0.797590309,-0.557602662,9.455104603,0.474169207,0.161033129,-0.365491427,1,32.86464411,0,3.821151274,65.88854702
1738852698,427,0.933880588,-0.765640065,9.82755893,-0.166303734,-0.158147145,0.180549099,3,63.89870315,0,0.872594006,39.38644057
1738850552,718,0.577063965,0.886648179,9.806716201,-0.345698086,0.065553293,0.319464875,0,75.35161582,1,3.214184493,65.1232977
1738853206,661,0.539154691,-0.914818281,9.057032335,-0.178834322,-0.191761151,0.058774639,1,72.15690076,1,1.604070994,10.65930303
1738852036,906,-0.81992877,0.20132179,9.557798662,0.243448928,-0.335031784,0.485566799,0,37.94154476,1,2.251830263,65.78453046
1738853629,407,0.72255126,-0.400616706,9.439360478,0.015999934,0.498957466,0.049790201,4,76.97433771,1,1.799121815,99.94137258
1738851923,768,-0.395773161,-0.734567811,9.607341933,-0.108087584,0.072408785,-0.046549547,0,38.979927,0,2.100527224,4.821203886
1738854391,581,-0.853924666,0.631647996,9.329256328,-0.230195955,-0.20998308,-0.42357326,2,46.03197585,1,3.735706573,97.71741842
1738849586,977,-0.828686536,-0.52104095,9.873133972,0.427524802,0.143271062,0.253226558,3,79.71931241,1,1.83704772,40.69079607
1738853342,899,-0.270673799,-0.369584703,9.399241918,-0.019249621,0.315663227,0.110917801,0,71.97063192,0,3.048820881,87.07534503
1738850573,975,0.481599974,0.960314984,9.559382052,0.143958955,0.189625667,0.030697365,3,87.93787284,0,2.64222681,78.23854841
1738851200,788,0.649675602,0.925460656,9.586613463,0.243404663,-0.098282863,-0.165865497,0,72.60903138,0,3.486520244,56.7016261
1738850286,943,-0.010861768,0.322408915,9.918261651,0.435982117,-0.032315055,-0.319472882,0,65.46468827,1,4.715733827,73.84492093
1738854135,926,-0.487795356,-0.623586598,9.127292491,0.183390036,-0.402220695,-0.060702323,2,27.49398143,0,3.796574437,87.85155613
1738852827,902,-0.802091371,0.890629804,9.817572657,0.413439265,0.076596352,-0.285312689,3,49.41726424,0,1.467231704,40.41403217
1738851173,936,0.36961764,0.037851165,9.220290825,0.161096397,0.385154446,0.06065173,3,41.21618941,0,0.640324108,32.70331616
1738852688,570,0.837630304,-0.987582467,9.556897124,0.395493113,-0.253901663,-0.285214127,0,39.51917147,1,1.680188199,66.75933856
1738852242,976,0.902260438,0.889467516,9.687953261,-0.317676855,-0.312062519,-0.047188199,2,97.84084438,0,3.177850688,80.78459419
1738852260,493,-0.99258514,0.599263228,9.055535351,-0.471380206,0.052626514,0.008995938,4,51.44781797,1,0.731416161,76.22851348
1738849850,310,0.791653979,-0.736404182,9.284915396,0.08084097,0.216425038,0.380298174,4,91.36372441,1,2.733648112,79.78136489
1738851892,743,0.737333202,-0.847235061,9.337802024,0.323425643,-0.081931593,-0.381414484,3,70.49109008,0,3.18579282,43.55833148
1738850206,301,-0.632999324,0.785876283,9.313568932,-0.295904639,-0.110007964,0.429289927,1,83.58490428,0,2.004097509,81.78342162
1738853327,557,-0.25901044,-0.166273696,9.185368189,-0.064440716,0.461753969,-0.477565692,2,60.21096745,1,3.969104917,12.02090554
1738850808,403,0.781580766,-0.146228762,9.243032347,-0.060998428,0.176551233,-0.396803979,2,66.15231077,0,0.979692139,54.4489098
1738854073,995,-0.115721422,0.677359662,9.583384746,-0.30149897,0.14392144,-0.155389165,0,59.40141551,0,0.838120018,0.57586605
1738849783,871,0.040038143,-0.546626089,9.246670076,-0.187420566,0.46438339,0.158690321,0,35.61943902,1,3.776849403,32.45858299
1738852829,590,0.458986733,-0.073521932,9.933609099,-0.13107986,0.000326466,0.350631002,2,77.79616922,1,2.729710923,36.64615349
1738852783,999,0.902564945,-0.359044015,9.200751801,-0.479061637,0.084483323,-0.201164349,4,42.461789,0,3.597810784,39.61726916
1738850244,550,-0.842000697,0.881948895,9.288570317,-0.126359282,0.117878375,-0.278235972,3,21.94527731,1,2.456723024,69.54672067
1738852307,748,-0.89086938,-0.336795176,9.783990077,-0.086977157,0.395664575,0.278171141,0,71.63778367,0,1.60880915,38.85581013
1738854416,471,0.145743684,-0.957469126,9.216911998,-0.312311128,0.339094494,-0.462845898,2,34.16885435,0,4.18596043,44.86936226
1738850522,806,-0.66156733,0.685668213,9.021007201,-0.377650119,0.315837569,0.379213705,1,95.23668675,0,4.097371455,23.75441309
1738850186,965,0.680666582,0.525471414,9.057763813,0.320343202,-0.424573366,0.36434948,4,96.31428616,1,3.626134119,37.32517916
1738853645,700,-0.565459971,-0.09057049,9.719315348,0.287663581,0.45298766,-0.122482964,1,93.18915122,0,1.724653118,22.72696273
1738853630,957,-0.706853876,0.448745891,9.544876671,0.097401339,0.429288907,0.003077855,2,49.61269602,0,3.156038001,7.319592377
1738850874,889,0.575408491,0.972139971,9.851552215,0.340879861,0.456826501,0.350908243,0,21.23652932,0,2.124382536,60.34485934
1738851384,523,0.562341967,0.119613191,9.165476746,-0.246078116,-0.241837953,0.028438379,4,94.26548501,1,0.91211933,66.82127986
1738851731,754,0.935997353,0.742826178,9.743018977,-0.317012138,0.392765361,-0.470579521,0,54.25473187,1,4.62791109,61.9490346
1738850970,940,0.073387425,0.3738398,9.084608109,-0.117113828,-0.1544501,0.181442405,4,97.33238552,1,1.115683839,46.34940438
1738851335,502,0.534600636,0.955142684,9.181350417,0.256999598,-0.415709623,0.348734918,2,97.08959817,1,4.776068092,37.97857802
1738854268,345,0.638199488,-0.43146399,9.011295638,-0.071597751,-0.374860849,-0.431020935,3,88.24075644,1,2.507025978,86.33336496
1738854254,593,-0.869725674,-0.380464973,9.355930745,-0.160960583,-0.355398243,-0.152559265,1,43.55591137,0,1.33309818,51.90817851
1738853671,557,-0.88524114,0.272551935,9.406782235,0.315990215,0.096134944,0.199231139,0,50.80781829,1,2.938554263,47.91818776
1738851205,465,0.038852096,0.253395856,9.968374809,-0.114392453,0.312158536,-0.015702568,1,88.09093372,1,4.428256261,2.564206581
1738851036,754,-0.504779892,-0.919170679,9.916919887,0.384277584,0.292640616,0.045458732,4,45.35376041,1,3.795011989,34.12478276
1738851828,866,0.151886342,-0.064430042,9.051617114,0.454785378,0.384496481,0.13352144,3,33.55941973,0,4.129525165,38.01956188
1738850430,557,0.154882456,-0.40103661,9.576570121,0.321948183,0.238942295,-0.011693864,2,64.544101,1,3.46452515,39.88227809
1738853078,896,0.436234461,-0.886933205,9.703555844,-0.220583276,-0.164750281,0.127137677,2,94.89238193,1,3.61524454,58.01723692
1738851569,530,-0.093506241,0.463882061,9.519985138,-0.115602215,0.140203879,-0.115177726,1,75.68238373,0,4.321380432,53.36025467
1738849979,685,-0.286128553,0.968933732,9.816551286,0.384544214,-0.026693899,-0.00876814,2,65.60489361,1,1.62350604,60.79050928
1738850179,556,-0.13743522,-0.54011299,9.212803032,0.166496743,0.48996273,0.313981685,0,27.7741195,0,2.702412336,76.48832615
1738851142,780,-0.716863782,0.309230898,9.675855734,-0.229187728,-0.025407605,-0.277620905,2,69.20057814,0,1.495442488,81.29857387
1738851776,895,0.041320395,0.313237532,9.71179741,0.181735731,-0.207299179,0.336855844,2,99.20430801,0,4.944506036,71.81230762
1738851770,409,0.083701159,-0.993382693,9.975481676,-0.492197725,0.061196072,0.015048924,4,31.20672122,0,4.748267029,95.5523696
1738854036,739,-0.357512685,-0.161999886,9.196196705,-0.00413103,-0.167030721,-0.265600978,4,61.46637219,0,0.677420651,1.823258268
1738851038,967,0.690944488,0.659041,9.133852835,-0.407371761,-0.208519455,0.479016078,4,90.18984575,1,3.675088276,19.57779857
1738851292,492,0.331263354,-0.855271208,9.742200433,-0.145090186,0.432569172,0.452846466,1,79.26148942,0,4.663617428,0.756287498
1738852033,515,0.348429111,0.106828491,9.521326672,-0.099419984,-0.092273985,0.095172625,0,75.76125928,0,1.312589053,64.74747142
1738852137,306,0.335071276,-0.664385643,9.571945787,-0.493213504,-0.496144639,0.162394856,3,76.19872672,1,3.055753537,89.80305489
1738852446,778,-0.682402789,0.625725163,9.633802743,-0.29293581,-0.262391075,-0.216362654,2,48.7592921,0,4.619697339,24.34822966
1738849702,657,-0.271516227,-0.372980751,9.878661044,-0.27107739,0.193599202,-0.122704943,3,43.48734754,1,0.652756904,92.70345448
1738850229,613,-0.591587446,-0.17908068,9.645900289,0.236472343,-0.041603564,0.438557754,3,84.74889244,1,3.638391203,6.026739029
1738850814,503,-0.641001021,0.359715332,9.689701898,0.369283568,-0.196414294,-0.47308332,4,84.80907157,1,1.838070533,93.44360268
1738854470,330,-0.408896323,-0.395741161,9.375423269,-0.156069857,0.472033591,-0.274489062,1,89.36578549,0,4.659782879,35.16226872
1738849565,842,-0.07090816,0.269302462,9.998308984,-0.385833861,-0.121379598,0.417377975,4,93.0592442,0,4.869762103,10.14208284
1738851386,706,-0.779044933,-0.57235578,9.961881009,-0.171533632,0.089357195,-0.107603999,1,60.90739191,0,4.749199201,48.58717592
1738852801,800,0.400172307,0.358145318,9.505071429,-0.46479216,-0.333369719,-0.068516875,2,60.12130357,1,2.633963975,25.67765677
1738851044,982,0.791954767,0.229970159,9.850821124,-0.135053731,-0.149766831,-0.1645698,0,83.86361432,0,4.379191929,28.4872902
1738852280,793,0.439654301,0.89612785,9.845366387,0.174199204,0.073445724,-0.385581816,3,71.99711446,0,4.300472293,30.72899649
1738853239,779,0.721045034,-0.360814872,9.620680143,0.327329248,-0.033706486,0.19022328,3,76.15735018,0,1.93595213,80.30258978
1738850977,409,0.43824118,-0.8323931,9.957634835,0.041430898,0.384039766,0.183908231,0,83.66341355,1,4.230119634,53.91612767
1738854158,576,-0.052668517,0.533828149,9.33676779,-0.120752579,0.215912854,-0.154874063,2,91.20042735,1,0.666534356,31.13076992
1738854148,885,-0.377679728,0.251908135,9.464737878,0.358395664,0.169707057,0.484074831,4,47.03961255,0,3.183214453,61.03337833
1738850284,507,0.349580678,0.156873283,9.832906971,-0.485704694,0.019499833,-0.194459196,2,50.04663621,0,1.535039768,71.61506742
1738850784,886,0.155612818,0.394928759,9.656297129,-0.217828494,-0.01438631,0.332633014,0,27.51855519,0,1.042550986,27.26240007
1738851187,589,0.127222432,0.161720229,9.217860592,-0.053696319,-0.160249159,0.259754991,1,66.26241128,0,0.846289407,41.35491015
1738853489,911,-0.664672257,0.995503852,9.072198286,-0.228170855,0.200278718,0.279885151,0,22.8753819,1,3.633299491,12.18860933
1738850763,913,-0.065599166,-0.656763837,9.012126331,0.025899584,-0.052760866,-0.308253442,4,57.24784145,1,2.029437337,18.11493495
1738852821,314,0.925513876,0.668314279,9.491454254,-0.407319094,-0.12918167,-0.321152112,0,63.41157078,1,3.761450472,68.1117854
1738851487,390,-0.329420691,0.737729607,9.772393013,-0.463803644,-0.042707723,-0.148735744,2,42.92330017,1,0.794103534,18.14383477
1738850106,327,0.35781786,-0.342292323,9.928033857,0.455368092,-0.024490504,0.196230908,2,67.26666085,0,1.91880652,52.51633837
1738850044,616,-0.771009706,0.169435074,9.974415392,-0.458697822,0.420611417,-0.32761146,3,22.44002,0,2.927710816,70.90462617
1738852515,346,-0.725891503,0.504553721,9.070976012,0.194438348,-0.359882801,0.462004858,1,22.9878551,0,4.058254242,10.68769231
1738851882,757,-0.75398708,0.124112351,9.025323673,-0.40279123,0.116168615,0.211075364,2,85.80804485,1,1.934386263,56.73122196
1738851748,491,-0.493937904,0.300077451,9.656036655,-0.165723653,0.409410209,0.085279424,4,48.81525131,0,3.316511194,25.65627837
1738852617,814,-0.458121122,0.751063886,9.67589873,0.256308614,0.28647157,0.352060466,2,30.16484101,1,4.486899867,96.29268752
1738850210,456,0.426638927,-0.934365098,9.618053752,-0.411748637,0.112224309,0.341125144,0,61.7794608,1,3.271384347,48.35456467
1738851927,345,-0.87340147,0.890811884,9.552057216,-0.428770114,-0.377701048,0.078838663,4,81.59948425,0,1.548317636,80.59925498
1738851778,676,0.467169073,0.533135999,9.393928014,-0.414034272,0.151211455,0.244678163,4,37.2656822,0,0.609803517,55.02265422
1738853817,373,0.559497769,0.848287173,9.636551674,-0.209753303,0.39202595,0.327165986,4,69.83123807,0,4.415444933,4.341253285
1738850723,346,-0.027561955,-0.828479054,9.612302345,0.17313313,0.249444843,0.179949711,0,26.8277972,1,0.595712349,63.31513756
1738849685,834,0.615759989,-0.494224218,9.854217156,-0.201056933,0.496637099,-0.443776605,2,24.13453769,0,4.436157527,95.14033422
1738850024,873,-0.370181862,-0.660677416,9.988036338,-0.063024023,-0.139948354,-0.335418644,4,62.50837053,1,2.880217103,60.16118201
1738852778,714,0.227456503,-0.299031775,9.67819869,-0.310267121,0.104319289,-0.33668114,2,63.25080973,0,4.725804643,81.91888594
1738850958,645,-0.715526838,0.399261691,9.981264521,0.041174007,0.109279385,0.183484828,3,70.99439212,1,4.094524561,88.42064633
1738852429,873,0.107969712,0.798150657,9.110319603,-0.44137267,-0.29582703,-0.272474143,2,78.0873067,1,4.990703497,22.80797719
1738854057,641,0.565888956,-0.272505078,9.169939958,0.494442298,-0.463914237,-0.015447249,1,98.06816636,0,2.07820317,21.20448399
1738854245,877,-0.85874922,-0.377046364,9.449458173,-0.472459989,0.48448757,-0.247900148,4,61.30402786,1,3.9523473,61.09809889
1738852379,876,-0.014526999,-0.234122061,9.878014939,-0.232467069,0.438110541,-0.177809535,0,45.83651784,1,2.308689111,41.10284698
1738849840,555,0.322989154,-0.891998465,9.216675094,0.143312763,-0.101260131,-0.313044678,0,83.61489558,0,2.659440291,83.98613029
1738851422,563,0.976961888,-0.649175518,9.942222722,-0.475401721,0.060819539,0.29549542,1,41.6665801,1,3.323774584,90.00231234
1738852667,830,-0.70424139,0.957539733,9.196970659,-0.292169866,0.172979339,-0.392522557,3,55.11771366,0,4.431547014,35.34213793
1738853178,980,0.30201363,0.003815994,9.646805902,-0.002200978,0.398779656,-0.360351552,0,26.27651051,1,4.928375611,23.6870559
1738851865,528,-0.24666984,0.00887705,9.268768788,-0.190861813,-0.311874575,0.167069323,3,22.02805947,0,3.957230362,78.05255152
1738854476,948,0.108596443,-0.819025338,9.856018562,-0.284262703,-0.290998036,0.389043229,3,97.01187317,0,2.37995052,27.48060355
1738851171,937,-0.259842931,-0.903330437,9.353742431,-0.069812395,0.332468257,0.299333469,0,86.87840964,1,2.39610651,82.26143185
1738850547,580,-0.606092778,0.66575658,9.203649706,-0.48643661,-0.006388066,0.209355119,1,75.67793649,1,3.819120357,42.37382536
1738851356,698,0.540463172,-0.468330152,9.084472443,-0.266981465,-0.192554901,-0.096983685,0,52.71623555,1,1.574497156,66.75498993
1738852195,442,-0.29052141,-0.380341299,9.050646065,-0.447202123,0.149485396,-0.017136083,3,33.86354561,1,0.997133509,9.553531383
1738854355,597,-0.208499467,0.276750145,9.959459031,0.002440798,0.419723439,0.139540949,4,32.51496341,1,2.095799709,62.38593247
1738853088,822,0.48442899,-0.08123248,9.046815168,-0.495143695,0.284393531,-0.46164566,4,40.01943185,0,1.792575462,45.17676787
1738854384,591,-0.649554925,0.41362225,9.986415721,0.090054675,-0.084245585,-0.409474787,0,63.93813318,1,1.833386542,58.66084632
1738853464,475,-0.965745871,0.730372946,9.095387076,0.255002628,-0.044025603,-0.136155011,4,77.16767382,0,1.55123488,16.80142077
1738851660,922,-0.076944526,0.908188063,9.700644012,-0.375058623,-0.138710147,0.341479856,1,72.81579014,0,0.689419353,73.68737449
1738852597,471,-0.071185025,-0.816617408,9.624165284,0.112991304,-0.235284557,-0.068846072,0,42.39471176,1,0.580432706,86.27970775
1738849969,665,-0.356133485,0.507295947,9.133452715,0.491836128,-0.095222411,-0.045277118,3,96.38922245,0,4.944750754,21.67398001
1738850530,800,-0.170516444,0.785693866,9.314617168,-0.024099052,0.326266504,0.168400487,0,79.03175334,0,2.424979102,9.571455552
1738851970,747,-0.315764489,0.214704152,9.036505407,0.042762031,-0.217964933,-0.409419689,4,64.3483242,0,2.229469912,2.363858605
1738850058,811,-0.201325488,-0.396035622,9.517742168,0.353431,-0.399725787,-0.064257033,4,68.9376597,0,3.558412772,64.19715004
1738853705,632,0.370702719,0.702303233,9.526659588,0.051136424,-0.068211064,-0.010402685,3,53.56800499,1,1.482142495,60.70940361
1738853808,346,0.634248116,-0.331747064,9.696111143,0.357090156,0.425672737,0.40101483,0,39.81847916,0,4.774825328,54.66974127
1738853494,681,0.241647057,-0.255314846,9.828622337,0.196894827,-0.179327008,0.014537815,0,48.47781429,1,4.038552565,23.19470961
1738849967,546,-0.078571247,0.40292002,9.988205527,-0.477351649,0.155751492,-0.358311894,4,80.62768884,1,0.90234951,39.09059959
1738853701,951,0.940465218,0.402391725,9.473497711,-0.123992885,-0.208073741,0.300786735,2,21.15147909,0,2.379113491,59.44763352
1738850736,599,-0.784799513,-0.976503911,9.9033225,-0.297804418,0.442012893,0.331183424,1,29.28581124,1,4.456032384,49.67668589
1738850038,823,-0.449803648,0.4246249,9.174243979,0.113726214,0.443588878,0.38889832,1,23.68021136,1,4.7512941,98.77855202
1738850446,507,0.149303852,0.400951324,9.092910733,0.355660928,0.435116146,-0.120653661,1,23.25830419,1,2.603306801,13.64397526
1738850358,605,0.552123238,0.064679304,9.572414555,0.181076775,-0.032770439,0.088256908,0,88.43684672,0,3.260351251,69.5144554
1738850108,940,0.243126635,0.002279832,9.9346732,-0.275897264,-0.428321247,-0.258905583,2,76.29262875,1,1.251652757,40.43187681
1738853378,371,0.209822932,0.251534455,9.11446924,-0.399251463,0.469471494,0.192964367,4,57.93390633,1,4.960258818,42.81996149
1738850750,625,0.925610677,0.477754362,9.351252357,0.173497818,0.476523023,-0.314885336,2,27.82673285,1,1.542522656,71.75977657
1738853806,459,0.187795044,0.627247463,9.299274863,-0.091639087,0.421823201,0.284773558,3,59.32927001,0,4.742292984,69.24361513
1738853611,908,-0.481150702,-0.708290927,9.8224802,-0.067655583,0.382291269,-0.452184016,2,57.87774166,1,3.42340992,99.12559937
1738850846,703,0.544624118,0.383066475,9.046755874,-0.019534112,0.128158712,-0.173862732,0,33.85614959,0,3.234815577,12.83942895
1738851774,450,0.352636085,-0.51946393,9.501128304,0.348377204,0.146272398,-0.357964841,2,54.70813194,0,2.8070983,10.41096494
1738853057,821,-0.677592408,-0.865060167,9.737639032,-0.116829574,0.121046057,-0.283224415,3,51.88037875,0,1.538014153,72.43388171
1738853207,340,0.523739362,0.734695708,9.168801085,-0.42583295,-0.181264411,0.042852099,4,69.26800784,0,1.294376144,57.8386917
1738854311,423,0.305475083,-0.298419498,9.14313774,-0.035218318,-0.155714033,-0.074856533,4,70.80749207,0,1.492187941,27.41606666
1738852559,549,0.286667743,0.271566586,9.302743341,-0.004755693,0.1083085,0.135622742,4,23.62432078,0,1.33897218,7.941936899
1738851646,707,-0.01683197,0.861305631,9.539645748,-0.467408282,-0.431903651,0.009963667,1,49.96900917,1,4.008130131,8.56582496
1738851740,658,-0.583814498,-0.511726064,9.548294707,-0.157159419,-0.179880061,-0.246358343,4,70.06879326,0,2.075563666,89.41908747
1738852589,632,0.754899369,0.11601918,9.92960857,0.374045729,-0.332191089,0.079007714,3,60.25090069,1,0.760292045,19.18673247
1738853471,595,0.521027805,-0.637920449,9.682828658,-0.48429106,0.492567496,0.337749017,4,88.5191873,1,4.860961836,32.33715621
1738850825,898,0.447016083,0.213863388,9.885234088,-0.359103487,-0.35695765,-0.337770438,4,72.69549053,0,4.477036482,22.66564022
1738849843,612,-0.589199556,0.129578161,9.05650517,0.345416937,-0.104672116,-0.362764694,4,33.03475417,1,4.674885274,35.49963058
1738854380,436,-0.252758924,-0.441967083,9.858511199,0.151531975,-0.400252938,0.06541784,3,25.64549979,1,4.977085202,6.942384275
1738849805,614,-0.055203548,-0.717412927,9.832449014,0.441257431,-0.371596412,-0.428011222,4,71.39354226,1,1.282528621,51.90597909
1738852798,945,-0.01327294,0.770822012,9.94875486,-0.036717716,-0.493985193,0.232309462,2,22.12090484,1,2.283089085,6.761256359
1738849903,792,0.464880456,-0.415343568,9.544989636,0.265375245,-0.333905393,-0.209238022,4,66.8620465,0,3.912073141,80.03565078
1738850740,903,-0.608230362,0.839296747,9.459028664,0.289691955,0.092295611,0.104775411,4,95.21841931,1,3.632092781,23.37120819
1738851514,589,0.023243123,0.19746123,9.752447385,-0.446972163,-0.241674118,-0.403251311,2,66.03793423,0,1.192531579,54.00119146
1738849975,716,-0.084378441,0.29753937,9.576054626,-0.487455927,-0.36450474,0.042739546,3,51.0535941,1,4.171249062,88.00790876
1738849643,528,-0.5300812,0.521828967,9.324848737,-0.22431871,0.062659534,-0.03255576,4,71.46305748,1,1.509982573,65.0877369
1738853282,670,0.323813905,0.913509644,9.637382032,0.020209557,0.089649946,0.227598715,3,56.66023124,0,1.507179267,53.29577866
1738851789,339,-0.344324446,0.353855074,9.193705067,-0.384477896,-0.015307613,-0.296397346,1,63.64934315,1,2.916384903,32.43337531
1738850223,956,-0.908973087,-0.160708182,9.025362516,0.090918667,0.312814388,-0.429903093,1,95.3171847,1,3.168229707,33.30019131
1738852593,980,-0.865128063,-0.235693712,9.226611239,0.043520477,-0.349402723,-0.429768218,2,50.88821102,1,3.110387935,66.94869552
1738849579,467,0.998818055,-0.086855471,9.921801852,0.128292121,0.270990227,-0.079054371,3,96.89524511,0,0.911690768,99.41393612
1738849982,886,0.907157105,-0.127291751,9.72780313,0.437081307,0.28359157,-0.109581287,1,92.42805136,1,4.448573882,66.18391898
1738850236,326,0.424896979,-0.335836882,9.505860852,-0.400505533,0.47217366,-0.24634991,1,35.66329078,0,1.695200192,55.77834174
1738854016,344,0.330378003,0.951968018,9.532999414,-0.447813492,0.078731069,-0.187845028,1,25.54890407,1,1.082817146,73.06505102
1738853498,612,-0.755672461,-0.374564514,9.858852227,-0.134276515,0.399802506,-0.320756305,3,28.06224011,0,4.499366359,46.52056123
1738853076,713,0.199880318,0.543178442,9.039350387,-0.189031582,-0.098516923,-0.164658836,4,21.45774605,0,4.800431742,6.01423426
1738851094,435,-0.368378876,0.898559003,9.118978439,-0.30681053,-0.234007127,0.275916459,2,27.55543686,1,4.379574278,56.22968159
1738851584,779,-0.580961785,-0.690019894,9.482501502,-0.36648976,0.327054253,-0.458467566,1,74.64054187,1,4.142822336,95.76252845
1738851785,722,0.100418298,-0.11603213,9.332168419,-0.21975517,-0.219448457,-0.054859509,1,25.69509188,0,3.448588913,17.53029424
1738853673,962,0.998228203,-0.950831342,9.830304419,-0.282513866,-0.142620867,-0.295115261,4,45.51805042,0,2.978858168,69.00048908
1738852788,774,0.390887103,0.073514669,9.149198725,0.394141357,-0.33421258,-0.163348625,4,87.59002488,1,0.89144042,20.09336887
1738849807,886,0.31507005,0.837461098,9.506281426,-0.482750169,0.172555619,0.275382086,2,21.86175486,0,2.338039459,53.58276845
1738850582,530,-0.913601087,-0.341220604,9.658546001,-0.46237899,0.224995055,-0.399740775,1,85.15747861,1,2.177098327,9.667644965
1738853945,580,0.693648883,0.578429238,9.109749202,0.228410446,-0.378778974,0.170692484,3,42.54838198,1,1.668892027,45.03709363
1738853353,539,-0.50418737,0.32988977,9.122951187,-0.114326895,0.139212201,-0.487696382,1,29.45318621,1,3.755390512,75.61633289
1738853863,436,0.716268046,0.374654189,9.694365816,0.090898471,0.231399876,0.080084862,1,75.73897323,1,2.731440808,34.75715242
1738852062,908,-0.614663732,0.173743043,9.786536238,-0.48482058,-0.467416786,0.457284875,0,70.31542774,0,0.864707972,66.49117245
1738851845,955,0.845488479,-0.264375899,9.341469365,-0.183727186,0.08609528,0.19093851,4,90.19776108,1,1.490824409,79.54499608
1738850876,678,0.598530699,-0.435835749,9.602156568,-0.049163088,-0.498108122,0.105461523,1,78.8056835,0,3.574664436,92.71778195
1738851103,676,0.088319462,-0.773561606,9.523021314,-0.09976417,-0.410130476,0.487012237,0,84.27847443,1,0.842588868,23.46420819
1738854200,662,0.384823133,0.537531024,9.269036084,-0.268045876,-0.131618798,0.20916874,0,42.56276581,0,4.330431113,39.93159158
1738849868,830,-0.308116038,-0.866172473,9.246625958,0.47049822,0.280015353,-0.010063707,2,34.1951635,1,2.728159372,15.24160133
1738850795,648,-0.856858135,-0.16894474,9.095913959,-0.137942386,-0.438847678,-0.075538863,4,80.04918013,0,2.662639598,99.24835022
1738852003,864,-0.426939309,0.505082819,9.457112879,0.407036592,-0.176053044,-0.099342968,2,84.54677914,0,3.165835031,92.70009679
1738851131,422,0.892213868,0.368837407,9.641954505,0.389664911,-0.077308048,-0.486115609,3,99.24041136,1,4.211064347,53.99571303
1738854178,817,-0.064338282,-0.386318341,9.736137458,0.280922339,0.183501555,-0.092956278,1,53.00941415,1,2.065141436,84.20332944
1738852669,746,-0.748607278,-0.40848775,9.601377801,0.320845035,-0.213205537,-0.266648208,4,49.76144686,1,3.551072687,52.09579773
1738849622,698,-0.995784999,0.994919419,9.824698322,0.366062569,-0.424959126,0.356217482,1,82.11303686,1,3.045793838,62.3585688
1738850412,767,0.903162477,0.120064899,9.931395254,-0.139706201,0.23127759,-0.40872405,0,47.26428322,0,1.701627216,8.912443212
1738852306,692,-0.50315693,-0.634754989,9.888362775,-0.058805036,0.466090932,0.024700755,0,94.46058605,1,4.453834939,75.52704205
1738851185,917,0.092388769,-0.216839412,9.290800376,-0.148183109,0.453447678,-0.23183068,2,88.67302015,0,4.088417097,12.77134836
1738851203,394,0.441361348,-0.078504357,9.8765536,-0.428382629,-0.302143776,-0.424626051,0,54.31952219,0,3.463033256,82.60676303
1738853413,769,-0.094562184,-0.547022049,9.279583596,0.062252786,-0.495625119,-0.199364079,1,80.06968542,1,4.327617781,78.20280877
1738852659,760,0.578684701,-0.450094406,9.845302779,0.331961458,-0.111448266,-0.220202325,4,80.36342993,0,4.402823904,70.87446977
1738850627,851,-0.501755932,-0.663048856,9.00971903,0.485858469,0.110068576,0.19225915,1,28.24990951,0,3.687633395,3.616038052
1738853554,750,-0.056467303,-0.262298617,9.518419557,0.076747679,-0.242400779,-0.235008288,1,92.20423253,0,4.266559978,30.31283559
1738850340,365,-0.206325042,-0.69649955,9.372242787,0.24415106,-0.456922959,0.444256957,4,60.4201898,0,3.638621578,26.31125699
1738852158,929,-0.898923798,-0.238212203,9.528429263,-0.334726724,0.151329698,-0.018076661,2,86.11659729,1,3.560633473,36.01364075
1738853183,417,0.554475616,-0.588193084,9.313557349,-0.243384238,-0.184646887,0.297521847,0,45.60396808,1,3.283751202,8.764274676
1738851674,328,-0.587991775,0.442368005,9.600288902,0.486523047,-0.452739059,-0.422441078,4,91.64185828,1,3.887224878,93.6957823
1738851427,866,0.682753996,0.484386675,9.13743225,-0.220612039,-0.367938309,-0.300195027,4,51.1361343,1,1.213722974,55.38022407
1738850364,620,0.361855627,0.411355299,9.000210502,-0.221509807,-0.165414241,-0.478630941,3,20.86701212,0,4.463918416,30.55243107
1738849940,586,0.009609398,-0.321127428,9.45314859,-0.03884259,-0.410945439,0.362798135,0,92.43055811,0,4.423295875,39.69815171
1738852435,753,0.923427502,0.969038483,9.143704427,0.401652303,-0.211686501,0.092078109,2,27.30293414,1,0.631612774,44.72025405
1738850728,938,-0.67184623,0.945590372,9.307187999,-0.404306377,-0.311736737,0.15493783,3,45.54509101,1,4.216175378,60.05943334
1738852750,554,-0.923005507,0.685408653,9.439429568,-0.219227964,0.427845814,-0.417588661,2,96.00495736,1,1.079914404,51.56794277
1738852176,528,0.50602357,0.253748148,9.940704579,0.448611979,0.42497481,0.017008197,1,96.04857176,0,2.008034844,91.93919732
1738850904,641,0.486291987,-0.068109532,9.609793235,-0.267434529,-0.199496093,-0.373670747,0,65.87503105,1,3.845787153,49.69634829
1738849963,604,0.625623449,-0.534420714,9.140170948,-0.422765223,-0.316675435,0.189163855,1,70.54697697,1,1.223419532,99.21580148
1738853765,826,0.044247945,0.260539007,9.549025576,0.021746331,-0.263001387,0.001372714,4,55.87564176,1,4.180851609,85.14249577
1738849662,940,0.506346348,-0.518774118,9.130245976,-0.260677265,0.240094784,-0.305157234,0,43.45686174,0,4.244603801,20.85105144
1738854548,852,-0.967770173,-0.787363128,9.479444996,0.377467159,0.155007498,0.395380414,1,46.29316363,0,2.783604802,93.05952146
1738852982,645,0.472088443,0.232430404,9.629051853,0.380076029,0.246701906,-0.291865869,0,73.80147649,0,0.528736423,11.63663979
1738852362,314,0.840631963,-0.379863252,9.646856769,-0.415975231,0.440010758,-0.095340886,0,80.18996236,0,1.791671599,81.74497085
1738852147,871,0.675838546,-0.567077363,9.708689983,-0.490625153,0.462401519,0.130002762,2,83.3263235,0,3.276171133,38.06232935
1738852389,715,-0.946987527,-0.086126437,9.126403403,0.398311796,0.096540711,0.048926647,2,83.16945142,0,4.915337801,87.79743204
1738851925,397,0.477427312,0.945167687,9.773508134,0.332379867,-0.25796253,-0.243090918,2,27.29648824,0,3.343160872,86.80566901
1738850788,569,-0.733426964,0.088183699,9.308476959,-0.238543471,0.329352242,0.166175117,1,59.55362438,0,1.669116115,80.59254001
1738851699,348,-0.110456236,-0.692905123,9.457079264,-0.057421754,0.311436421,-0.061731897,3,24.6047008,1,3.353025664,79.00304363
1738854528,823,-0.481793992,-0.85705467,9.864538266,-0.139672779,-0.06705148,0.23776658,2,63.96231059,1,2.929934209,30.46791391
1738850152,378,0.784643931,-0.698158025,9.21707182,0.172329146,-0.215788261,-0.363685606,4,55.32244011,0,4.009304278,8.091928305
1738850987,961,0.351137182,-0.652384017,9.214113529,-0.472902067,0.190748304,0.430683826,1,91.01633462,0,0.981412875,40.29801788
1738854549,838,-0.978168658,-0.542421194,9.860772605,0.171495972,0.484586264,-0.462806714,4,48.073201,1,3.924625561,17.3524515
1738850091,762,-0.355928923,0.488753551,9.80691058,0.356553172,-0.158839335,0.201556498,1,29.36536131,0,2.935699604,69.49510889
1738850274,785,0.068834472,-0.479625259,9.423317076,-0.16865809,0.204647066,0.082200337,2,31.43933456,0,4.833464017,34.60997265
1738853963,593,0.314287611,0.742949997,9.50586118,-0.278537653,0.445022184,0.184429359,4,80.92085054,0,2.038424747,97.56102009
1738851425,336,0.197644974,-0.647549664,9.547934852,0.060748487,0.363314818,0.000190457,4,69.45744507,1,3.346798519,64.09720773
1738852398,638,-0.209851577,0.303419407,9.719960914,0.252508839,-0.482897271,0.277723517,2,28.08981409,1,4.694126475,82.24805636
1738851606,694,-0.417697793,0.121541459,9.901483434,-0.43423985,0.125847983,0.033803896,3,26.72854449,1,0.961293776,13.25246727
1738852460,862,-0.32123492,0.1257929,9.334920952,-0.1188923,-0.292449036,0.133736491,2,76.07753052,1,4.717528193,86.20144823
1738851807,678,-0.855102051,-0.746994962,9.159521283,-0.271266991,0.04813908,0.268383963,3,25.82104051,1,3.59548575,92.27571905
1738853465,739,0.264566256,0.357624311,9.254014493,-0.21841958,-0.380440282,-0.26623503,1,85.74880474,0,0.805266766,48.70619188
1738849730,394,-0.584130508,0.261397779,9.127881021,-0.067879895,0.243612264,0.496432188,4,76.49937817,1,1.854336051,60.62529378
1738852443,747,-0.060192098,-0.655135415,9.492553198,-0.305760482,0.215266477,0.213372018,1,26.50790245,0,3.686774399,76.48098009
1738853226,742,-0.702928352,-0.259769423,9.431829599,-0.179820557,0.450831715,0.335334871,1,26.78701713,0,0.803077707,17.48386273
1738849633,371,0.551818377,0.881708225,9.723110042,0.020961923,-0.466225799,0.497544114,4,98.93116628,1,3.119767071,50.25660765
1738852114,738,-0.528781867,-0.538157701,9.590057483,0.286264867,0.336129461,-0.187477066,3,49.94166366,1,2.056473756,39.86630278
1738851276,324,-0.605418536,0.458798901,9.395897768,-0.371772229,0.320954069,0.389569621,2,49.65137177,0,3.29411983,14.63739922
1738851170,572,-0.040279215,0.561982053,9.848674036,-0.497778838,0.26199103,0.328564688,4,85.02396538,0,0.705839152,36.75344223
1738851207,301,0.542153698,-0.718560681,9.72046404,0.180180588,0.338362977,0.172294726,1,95.77988619,0,4.421915628,6.817230939
1738851881,875,0.333537625,-0.183323772,9.186309371,-0.332041092,0.271132721,0.077964398,0,98.88008511,1,4.880700361,2.581190695
1738854166,909,0.993306396,-0.811368957,9.433273713,-0.19302294,-0.440854685,0.482148587,2,80.27025482,1,4.859950349,13.51662892
1738849774,924,-0.737877714,0.489107061,9.134867077,0.262779501,0.09618762,0.373375776,4,50.10076684,1,3.873433243,96.31151116
1738849646,703,-0.047659408,-0.645996547,9.722060689,0.281782701,-0.479462546,-0.104881351,1,26.68005734,1,1.085388081,54.95295359
1738852162,998,0.578174933,0.00661634,9.575722353,0.311809848,-0.326315153,-0.153389534,4,82.17175327,1,3.912184382,96.58221612
1738852935,338,0.410263773,0.479308363,9.624800504,-0.226451697,0.490372104,0.383874396,1,64.67233998,0,0.610641124,43.24978783
1738853968,990,0.600511907,0.627472951,9.069736171,0.389315937,-0.198189563,0.283203384,3,53.93776074,1,0.599555982,31.18161331
1738850950,948,0.963963954,-0.658232036,9.77237846,0.432383562,-0.211097045,0.386635396,2,92.50835081,0,1.956245986,50.61418628
1738854239,677,-0.373128713,-0.771981654,9.807942315,-0.235793953,0.410609069,0.474879719,2,28.89579858,0,2.698894357,43.95116886
1738850845,450,-0.716059441,0.575027996,9.977101623,-0.286492662,0.395083485,0.217454054,0,59.41000834,0,3.96683338,10.56646843
1738851717,802,0.537040351,0.959197289,9.085181655,0.048930023,0.44481381,0.26545601,4,20.90829158,1,3.574829195,64.08263147
1738852492,798,-0.960684747,-0.338615083,9.267771088,-0.427414755,-0.282088531,0.095400535,0,57.49285136,1,2.506562179,21.60381825
1738853221,719,-0.824111017,0.258851722,9.707404571,0.169367617,0.183655438,-0.025889065,4,24.50426205,1,1.731319998,61.95879549
1738850365,822,0.752191719,0.859188596,9.548650169,0.126306985,0.419995426,-0.227922629,0,29.5054333,0,4.987060251,65.02010924
1738850811,701,0.101183237,-0.577316913,9.164999407,0.245490672,0.194068275,-0.463965095,4,29.40209974,0,2.41781586,15.20248531
1738850442,926,-0.137259512,-0.033019489,9.734927095,-0.336661173,0.259338508,-0.041948023,4,71.93682417,0,2.531241609,6.134962711
1738851004,886,-0.976259627,0.222916525,9.806115652,0.042694874,-0.433359258,-0.067943225,4,79.68359034,0,1.236307195,78.07615861
1738852869,859,0.973773555,-0.722239741,9.389672696,0.006093746,0.341709231,0.405494043,2,66.66950121,0,4.076642969,45.98004238
1738852112,561,0.187201344,-0.650582507,9.965099126,-0.123818352,-0.155867305,0.30165399,0,96.97380388,0,3.621570016,5.816379551
1738853127,778,-0.799994315,0.497322788,9.426101926,0.188858085,0.293187926,-0.283155628,4,49.98964636,1,1.493463258,99.48663172
1738852233,611,-0.539185344,-0.197429077,9.507023735,0.228031114,0.359307149,0.073020239,0,42.8569669,1,0.870714705,5.7780561
1738854204,597,-0.798348354,0.939012968,9.549468212,0.157320084,0.3690384,0.455765084,3,89.48793026,1,3.562246859,69.50352289
1738854364,492,-0.729491577,-0.613698363,9.271657455,-0.271731243,0.253587588,-0.22005204,4,37.88766708,1,3.445300464,98.36789253
1738854232,794,0.730159553,0.538324386,9.192318423,0.028468428,-0.203773439,0.124582278,0,97.05780316,0,1.729667871,23.91801042
1738852517,410,0.844213331,-0.531227862,9.89916489,-0.105096802,-0.071211275,0.36027526,4,20.97235798,0,4.77888603,14.22493687
1738852225,601,-0.271765557,-0.380912337,9.399444385,-0.221966919,-0.066768901,-0.229325151,3,97.59030614,1,1.179760513,12.13849394
1738850114,379,0.388331142,0.254836006,9.604575421,0.320405248,0.458361942,-0.183443992,3,23.45279296,0,2.445506605,30.32751476
1738852331,738,0.04511374,0.026914797,9.739128598,0.318151331,0.302609145,-0.495664364,1,91.2914491,1,4.746271641,10.1045811
1738852501,987,0.472724586,0.014051411,9.56498028,-0.034791753,0.343761973,0.467982204,4,62.21608873,1,2.388772926,69.21613417
1738852370,309,0.416851077,0.978846417,9.420130295,0.405529158,-0.399739865,0.312062233,3,99.43718369,1,3.373366764,6.229179813
1738852311,306,0.411165448,0.378081419,9.297243125,0.129469718,0.308250173,0.057918361,3,25.90372518,0,2.289174791,50.94221281
1738851309,925,0.709374351,0.367181134,9.379526477,-0.238793387,0.374132695,0.177094524,4,64.30834275,1,1.733968411,99.66968539
1738850277,417,-0.181202621,0.366775665,9.027729705,-0.16813017,0.431374482,-0.136438476,1,97.54420285,1,4.927899416,81.39702695
1738849772,844,-0.114825311,0.517230107,9.777073335,0.159048453,-0.198632362,0.320271348,0,61.84782753,1,2.342003028,61.52194382
1738853692,570,0.620743444,-0.074580678,9.914630302,0.484390915,0.293250505,0.122695111,2,70.35189105,0,4.523446417,30.62536208
1738853510,530,-0.080880484,0.958794093,9.379754531,-0.355510704,-0.418610678,-0.107048216,2,75.65989512,0,1.534795727,62.38958363
1738851141,405,0.599251852,-0.075178666,9.388135285,-0.298569771,0.395684418,-0.34138339,3,56.36328518,1,1.458971168,52.70414639
1738852900,324,-0.346932083,-0.287235235,9.079505717,0.39228586,-0.403303852,-0.243506997,4,70.20464641,0,0.640103373,42.60833839
1738853523,480,0.757499516,-0.915565545,9.04424071,0.020397389,-0.196132143,-0.460540257,2,66.74514495,0,3.432500714,13.07103767
1738854260,332,-0.078560241,-0.992533173,9.306340259,0.249763784,-0.494641711,-0.329373304,0,92.09264084,0,2.158368547,88.66042152
1738849596,470,-0.050464168,0.26274286,9.436345646,0.118042244,0.028334189,-0.276910607,0,23.63571043,0,4.389612124,44.97846488
1738852554,640,-0.860680571,-0.864241316,9.7304649,0.149956503,0.0711369,-0.447492211,3,42.47705517,0,2.62944458,19.46225118
1738849763,450,0.783129556,0.603369203,9.055779347,0.096573295,-0.004146921,0.282014801,0,96.03291873,0,4.856870426,36.77593509
1738850230,371,0.440287004,-0.147093928,9.627493616,0.082846673,-0.320048352,0.333695466,4,91.22110271,0,1.334864821,41.41297525
1738849907,834,0.820820324,-0.755194784,9.993601037,0.153375578,-0.318597112,0.2300841,3,56.45254022,0,4.408804256,82.75378956
1738850986,621,0.354430245,0.480184267,9.0844455,-0.374351251,0.001518717,-0.159520386,4,69.61060782,0,3.994685838,73.36143806
1738850502,445,0.308467864,0.357627726,9.172857105,-0.093973643,-0.425586507,-0.382561122,3,42.19049464,0,3.969148301,76.93048936
1738852396,808,-0.271038856,-0.259375961,9.732993591,-0.2217302,-0.355132667,0.111104722,0,35.04969278,1,4.301524527,1.103126443
1738850130,525,0.098218962,0.335511821,9.410299971,0.344722201,0.143782593,-0.30184188,1,57.0958724,1,3.924607959,41.61539982
1738853481,604,0.198358951,0.086492607,9.421168914,0.181515986,-0.484572431,-0.276520825,4,48.26817824,0,3.317991447,48.13441516
1738850097,497,0.532906372,-0.261024611,9.857473583,-0.072116484,0.238366565,0.112023208,0,66.69248895,1,1.09060195,1.919227682
1738849920,750,-0.641024931,0.767098332,9.800169307,0.295938677,-0.355829545,0.055762558,0,26.21877096,1,0.646367808,25.98132087
1738851165,338,0.343052957,-0.520807337,9.720614252,-0.332875432,0.496944328,0.094124236,3,97.95158461,0,4.643815315,76.02898231
1738853103,529,0.310620072,0.222313945,9.872939009,0.371721707,0.330817986,-0.071471555,2,98.89685956,0,3.274926415,13.71097057
1738851054,619.9633084,0.277677448,-0.022111915,9.60340897,-0.132993163,0.132290046,-0.15775454,1.031088881,50.00140084,0.956400561,1.054829205,79.64662152
1738852139,737.0343443,-0.76227327,0.711269898,9.834135043,0.000957854,-0.437779822,0.439816035,3.954319905,96.05493409,-0.035855293,4.685383061,48.18130331
1738852206,801.9832309,0.460205286,0.682982687,9.580796063,0.220636741,-0.499921706,-0.405397957,2.999777603,78.54131222,0.025042752,3.362815045,11.75704704
1738850608,476.0488305,0.098068837,0.273698453,9.884604286,-0.061612873,0.498632984,0.034100291,0.986611192,67.8693243,-0.002761196,1.971836587,12.50684397
1738850258,929.0219255,-0.235588412,0.672160122,9.847648609,-0.03854846,-0.13651727,0.091200449,4.015630056,32.51651194,-0.047390227,1.139151005,68.57680719
1738849659,827.0282366,0.477525247,0.67061105,9.357625331,0.13003972,0.357746858,-0.049792654,2.034525257,32.45675007,-0.030701481,4.052112611,42.99321422
1738850142,671.0270122,0.071497348,0.778606969,9.268285968,-0.294003829,0.065731807,-0.419916441,0.02399492,24.62405835,0.967669451,3.339540364,20.04100541
1738852021,708.0265345,-0.284888986,-0.014550263,9.980883743,0.299902104,0.024090598,0.338167243,2.010071223,89.31635212,-0.023109501,2.92057375,49.15071451
1738851966,772.0199417,0.639384209,0.882827706,9.132914697,-0.100937032,0.366721602,0.309166586,1.015998244,68.08539304,0.985371571,4.517821517,6.388208612
1738851153,993.986802,0.320088891,0.286525872,9.894673098,-0.372370929,-0.140602202,0.230944681,4.015721639,76.69415244,1.049644527,4.067216811,58.15606988
1738852017,777.0228835,-0.340644693,0.214911247,9.286723734,-0.495652858,0.04599983,-0.359257097,3.009205483,21.6009415,-0.043004383,1.20699583,26.92707268
1738849781,592.9804932,0.910199403,-0.272458275,9.929589316,-0.256657751,0.058545616,-0.359682613,0.034049274,97.54548275,0.040586841,1.906349919,79.72189875
1738850468,580.9995511,-0.393803526,-0.921783274,9.746558037,-0.298016075,0.286040366,-0.468174919,2.99857417,86.59877133,0.999418511,1.606938319,31.06251459
1738850347,476.9555948,0.656362602,-1.017405443,9.104324113,-0.361143214,-0.297268735,0.157584455,1.023888074,36.94020988,0.000838295,3.805501484,45.50000901
1738852574,709.9545275,0.512077303,-0.207176123,9.527460071,-0.002406681,0.282311699,-0.018955611,1.984560074,34.53962137,-0.016210156,0.690502929,1.193249156
1738853096,385.9818795,-0.448408571,0.949537939,9.464236217,-0.101457179,0.164164915,0.019903285,2.950268812,34.71158376,1.030332166,3.053713142,7.258522867
1738850626,755.0309536,-0.699861329,-0.655791863,9.940365402,-0.016945782,0.423915403,-0.002913429,0.001757269,44.3275112,0.982700774,3.915806365,39.27635474
1738852904,835.9888375,-0.75416163,0.891117446,9.055663005,-0.193545921,-0.34177745,-0.055434973,2.042426547,62.02086924,0.030797242,4.474468438,48.00595964
1738851297,413.9851365,-0.607373877,0.366123309,9.833491977,0.391102669,-0.001470627,0.054845723,1.035475575,54.58004411,1.039114818,2.020427075,59.96104706
1738850637,604.9561523,-0.478826596,0.491072536,9.748045743,0.439158236,-0.05067939,-0.494144729,2.982202278,43.34703054,-0.045935332,4.209760188,29.12255794
1738850479,705.0232535,0.221158369,0.275155028,9.726473115,-0.055862539,0.426054646,-0.250370359,1.024596025,68.96799669,-0.018644422,0.972371295,69.52553295
1738852602,775.965194,0.029493107,-0.637703086,9.198063719,-0.363632963,0.285830132,-0.454762628,-0.04766772,31.11188922,0.024342571,4.3003734,86.02818185
1738850670,974.9514585,0.385785553,0.75669052,9.547580819,0.042308458,-0.331925109,-0.013962536,-0.003677742,43.38474526,0.989386429,1.045520348,77.93877268
1738850195,486.0264436,-0.57463961,0.370744954,9.091435576,-0.383928561,-0.027545784,0.081399807,4.038110059,49.28032611,1.014382162,2.328951531,3.958581638
1738854320,304.9764708,-0.843311192,0.67087769,9.435375116,0.112351176,-0.425937936,0.324936136,2.95556503,56.50766693,1.045850394,4.095733253,48.03085302
1738850054,575.9704059,0.744690586,0.049273483,9.25326196,0.501500827,-0.129058555,0.226307163,0.005421089,82.81960623,1.017204029,1.134757472,10.54175322
1738853619,488.9666178,0.530100381,0.280274978,9.805574706,-0.417992271,0.307260247,0.447745912,2.996471201,35.98116253,0.994811663,1.567156766,24.21585777
1738849886,333.0455863,-0.116021119,0.078439593,9.226823573,-0.255406249,-0.475824934,0.43543483,3.048175645,61.11253611,0.03110472,3.774415119,98.67364468
1738854237,549.0451209,-0.098038286,-0.127978234,9.332087475,-0.386906915,0.083963664,-0.426537097,0.017668897,67.37358471,-0.036180974,3.701860517,14.20642854
1738850039,629.9823039,0.493483452,-0.041995336,9.415507524,0.164224351,-0.129147222,0.322186815,1.028008873,23.7630217,-0.019149522,3.399147784,49.91848973
1738851515,322.0319544,-0.867400031,-0.14482881,9.671523789,0.191110603,-0.244241854,-0.226498679,2.038611124,68.59625738,-0.041759682,3.662644483,61.80657982
1738849946,893.0022161,-0.227305488,-0.399063315,9.190814392,-0.462165508,-0.250212096,-0.15044819,1.021051342,33.62632561,1.019205868,2.980742652,70.19778162
1738854395,719.9803276,-0.890635203,-0.665080807,9.334618295,0.432894417,-0.345138815,-0.026652896,0.03189407,25.21318518,-0.023227212,1.627956208,55.98777799
1738854419,725.0043152,-0.572375208,0.951619369,9.824935313,-0.091985106,-0.210476599,-0.08409153,0.037375501,95.87950533,0.963704848,2.079776431,0.994849763
1738851308,781.0447233,0.214771919,0.013668538,9.712780013,-0.008814637,0.343175307,-0.222272044,4.046031349,97.26604414,0.011682259,1.313153514,32.64523052
1738852068,349.9570651,-0.641253967,-0.514667197,9.838739115,-0.394905928,-0.20151181,-0.338746566,1.008361362,84.69246391,0.968393852,4.629191686,51.77270925
1738853138,493.0163039,-0.839372247,-0.142207977,9.546727663,-0.469785184,-0.070095513,0.033615931,0.035193943,44.39501643,0.977873519,3.128392485,8.796396485
1738853868,491.9741483,0.261347218,-0.114508159,9.612961976,-0.036608359,0.26578787,0.249679703,1.022109178,27.78943791,0.008796294,2.334980652,35.0812111
1738854519,374.0141914,-0.479160049,0.140743836,9.305793985,0.196450316,0.133390381,0.361695388,1.986324452,74.73926142,-0.035384015,2.566302472,3.291492402
1738851652,451.9695235,0.721202654,-0.652135699,9.297590337,0.402164705,-0.273839504,0.047369278,2.965842985,55.21366816,-0.007215297,4.79308676,7.904935189
1738853152,554.0293261,-0.189474231,-0.920076114,9.80554233,-0.282905068,-0.064141803,0.256990453,0.000207128,29.72351113,-0.013119279,1.223889806,39.73257016
1738853674,738.0023704,0.207802305,-0.033478981,9.443796174,-0.458533849,-0.158428334,0.125447234,3.030239314,59.57882737,1.017398137,3.144623407,13.29605062
1738849582,346.9955386,0.072415988,0.026216219,9.875166427,-0.003063344,0.059021704,0.441925214,0.971567758,22.79054346,-0.007907224,2.772263014,56.71219342
1738849618,593.0236017,-0.026734452,-0.756647976,9.753387883,0.100163022,-0.330020239,-0.164395907,2.032562351,92.70278471,0.046216408,3.215188961,68.89943025
1738850391,883.9586807,-0.769896021,-0.168915596,9.429496953,-0.216079016,0.460420387,0.111788867,3.010425768,40.67081354,1.025497453,0.545975544,80.0314409
1738853459,856.9619061,0.336302543,0.253806248,9.418994731,-0.187295417,0.190417182,-0.199631285,1.026993132,72.98442011,-0.043493963,4.469892943,19.97373099
1738853326,918.0162144,0.661924149,-0.178719475,9.837243202,-0.255462476,0.417545997,-0.183114384,0.000424442,44.95941994,0.045351818,4.731262278,16.76539475
1738854188,420.9961961,-0.034074631,0.574962623,9.408246083,-0.142057982,0.330966184,-0.353694996,2.988099641,61.64494975,0.008201142,3.016930683,10.45491856
1738852714,694.0325827,-0.186474686,0.844828218,9.682608549,-0.417539504,0.386401453,-0.142535096,1.995682486,63.74028972,-0.017863594,3.633214894,63.66001385
1738852212,687.9714346,0.61895006,0.61884112,9.802719328,0.278311078,-0.472845259,-0.09298718,0.034317044,34.7646571,0.001820288,4.640038601,70.68405189
1738854168,882.0204071,0.202058458,0.032403802,9.327325589,0.023420102,0.402384762,0.329957962,0.043579754,97.60845416,1.006386458,3.649068197,3.192005627
1738854181,678.975048,0.546422748,-0.355302228,9.934151018,-0.020542124,0.249744309,0.482844929,2.970781732,82.05220062,-0.002059307,1.17948036,93.64001869
1738852004,790.9761845,0.029246619,-0.313174622,9.436360483,0.074094579,0.353190496,0.305844859,1.036354637,95.16127888,0.016556756,3.140866838,5.17844686
1738852399,562.9518042,0.700719992,-0.05981089,9.946783178,-0.017127382,0.247305675,0.144168431,0.951585225,91.6046011,0.022225204,3.277572592,54.12754811
1738850697,516.0031864,-0.67425255,-0.854963856,9.464108807,-0.418172525,0.137774323,0.421569555,0.983552275,67.86373639,0.030073469,2.415045543,70.90120138
1738852631,861.033131,0.37371493,-0.18529388,9.202988109,-0.374175131,0.107020491,0.178337938,3.045092517,93.69995434,0.033117599,3.804414049,87.10388654
1738850656,416.0253642,-0.999120842,-0.834372482,9.154223912,0.347095369,0.194820339,0.384911194,0.010420319,27.07546158,0.962117194,4.733508789,71.40224278
1738849721,870.001892,0.624803119,-0.618565924,9.26567902,0.201922586,-0.429128641,0.079209255,3.99785164,35.7214684,0.035148922,4.670540957,80.1742997
1738851223,334.9506451,0.444040099,0.036278252,9.655140299,0.378620287,0.447563909,-0.242095708,1.010077212,23.62685108,0.990089126,2.528811158,33.97781465
1738852123,767.0495785,-0.468495348,-0.432132634,9.927454776,0.011947371,0.114296932,-0.434931081,0.049260522,46.00798835,1.012387242,0.980535486,81.45703848
1738851930,688.0416804,-0.54136202,0.176783393,9.798783314,-0.175333157,0.263932247,0.364069977,-0.039635858,51.09021973,0.005837133,4.905628892,8.019545956
1738853948,867.0078799,-0.193934373,0.439517987,9.774208909,-0.218653674,0.121893969,0.274858386,-0.032764395,41.68961016,-0.010281092,4.322564607,89.44758937
1738853810,522.9799393,-0.759762686,0.598654375,9.317795388,-0.017290445,0.518528206,-0.405948625,2.010012172,86.34216451,-0.004448107,1.076459082,54.74184687
1738853415,824.0378578,-0.096916411,0.700511153,9.211390255,0.20704423,-0.219660543,-0.00057689,4.005341568,48.53453775,0.011810963,4.648279496,81.74369345
1738849576,448.0497055,0.515412845,-0.932446986,9.499144869,0.414023461,-0.138604941,0.12675408,3.993591718,42.49361269,0.979570641,4.383033653,45.25191344
1738852186,344.0380646,-0.332560558,0.434303707,9.613485722,-0.296534643,-0.366461061,-0.182912464,4.018872919,63.39117764,0.034018293,2.796473915,64.38561084
1738852893,829.9552787,0.798376101,0.652224875,9.795947809,-0.16529304,-0.444073423,-0.262854483,0.038795241,31.28752513,-0.011003513,3.132813559,52.67643126
1738851768,794.9796516,-0.222524069,-0.440960941,9.338225415,0.344421557,-0.437657007,0.076515492,0.040993789,84.15556769,0.023292527,2.319983395,73.20721291
1738853235,447.0011554,0.574771692,-0.430026374,9.11503458,-0.351062201,-0.208183173,-0.245250048,4.044240775,25.91481687,-0.043791375,0.714658341,8.187406458
1738854277,572.0366279,-0.837694118,-0.066961106,9.143957897,0.090091294,0.334102613,-0.227100417,3.961189814,98.97600787,-0.01659654,2.030669871,6.069944364
1738851460,330.9942033,-0.92306745,-0.825110695,9.231849964,0.259617728,0.399922561,-0.041869558,1.033083437,81.7869264,0.01547755,4.127711126,24.68038695
1738849637,748.9859441,-0.807942352,0.394956811,9.587644529,-0.34005837,0.429881251,0.314817648,1.020593002,35.93125975,1.027875452,0.54104405,15.91911059
1738849780,736.9735106,0.957130512,-0.912386326,9.12767991,0.394765953,0.297687369,-0.378898615,1.980596011,20.45737038,1.039730044,1.96301409,87.22741013
1738849849,804.9873425,0.104845884,0.893160351,9.000832197,0.12097615,-0.353611722,-0.193223934,1.002316581,85.20872824,-0.020452796,2.277152862,21.90509425
1738850554,488.0103724,-0.820955457,-0.501787776,9.894896527,-0.485511856,0.312588169,0.331037364,2.969786294,76.55191796,0.021099212,2.959336233,97.62330509
1738851691,806.0341188,-0.908090512,0.74391592,9.7837959,-0.015015883,-0.47028671,-0.236759309,2.018657551,78.34698895,0.01683146,4.665058613,33.68120314
1738850264,691.0370154,0.254971654,0.881469427,9.287545126,0.002914975,-0.302406573,0.063007993,0.036918222,81.7271766,0.959302864,2.053365958,18.2370363
1738852354,525.9581334,0.84574641,0.162746649,9.310656391,-0.455579012,0.208155644,0.29920563,3.025529627,25.92628352,-0.015698819,2.097762416,79.00931152
1738852080,508.0316734,-0.94756684,0.192191263,9.512156049,-0.311137114,0.438361044,0.469113113,4.021469668,48.66022873,1.022226513,3.790831395,65.90452815
1738853305,730.0251641,0.442585544,0.182231384,9.457082784,-0.418210404,-0.295765826,-0.470091947,2.041581713,29.2325334,-0.036933232,2.492400085,49.77435961
1738852874,603.9968439,0.988605517,0.044352408,9.722108225,-0.409631523,0.10834403,-0.28254866,1.975848299,89.02498973,0.033639443,1.500048583,55.51205893
1738852734,673.994383,-0.700303574,0.155041589,9.049328923,-0.32924559,0.488475696,-0.106064685,3.972998251,69.86478399,-0.046358805,2.544402722,71.88044594
1738853736,342.9587394,0.797752721,0.0417326,9.821139618,-0.269105013,0.07378361,-0.429102876,1.00833682,46.46377542,0.035173641,1.183765785,22.79873659
1738851168,640.9626508,-0.537960387,0.578877551,9.935248361,-0.414565909,0.220202869,0.410743622,1.042638114,25.12050998,1.010718587,1.295860043,99.62936332
1738852577,595.9858504,-0.413511172,0.141357297,9.738027041,-0.089127508,0.515156708,-0.069302279,1.985787001,44.89393816,0.963418608,2.76389551,97.49327046
1738850966,862.023382,0.304978036,0.497491032,9.827636918,-0.406840646,0.354718569,-0.410632591,1.03350488,45.98594796,-0.011459437,2.338846978,65.05915318
1738850316,482.9718671,0.513111543,0.659296585,9.5334481,-0.189468909,-0.437252763,0.138929549,1.030860325,78.39944062,-0.021218192,4.617879588,19.93591238
1738850208,742.9736613,0.681865254,-0.162171504,9.821115324,0.339269327,0.478597095,-0.047087452,2.995912531,71.00827599,0.969125613,2.179176068,67.99116287
1738854350,690.0033703,-0.87360421,-0.635824249,9.995268038,-0.235078868,0.114883411,0.14448111,2.991057023,90.97419384,0.956208796,3.078529529,7.207757714
1738853402,666.98143,-0.916355355,0.390620642,9.148432229,0.252716265,-0.161456079,-0.127388874,3.031308797,57.81707378,1.036840932,3.319528594,3.015676099
1738853706,321.0132669,0.417609639,0.872596866,9.260230591,0.092416606,0.102590828,-0.322307105,3.996237836,29.56274025,0.954168969,0.5164159,25.80873015
1738850021,967.9923845,-0.809582628,0.089355736,9.93448363,0.441253968,-0.072577036,0.47837964,3.953408806,77.10039137,0.045476927,3.439463628,46.27560913
1738849710,574.0164068,-0.278032612,0.498393017,9.795526182,0.415313757,-0.173576189,-0.404604731,0.995141982,80.82394917,1.028992979,1.292621563,86.78073612
1738850848,388.9911387,-0.194430419,0.428878802,9.442865674,-0.020443508,-0.172266846,-0.414643318,3.009664485,64.87565652,-0.032544224,4.846766739,72.75949437
1738850050,760.9783959,-0.376327321,-0.896435677,9.230534858,0.473976011,0.339302804,-0.035311968,1.040989355,81.65272365,0.981971239,1.145639933,74.31476988
1738854293,815.0426607,-0.969182339,-0.972944608,9.159607756,0.295002905,0.316706704,0.201397284,1.015300504,59.46034773,0.989221434,2.393092616,42.51024618
1738852493,831.0367281,-0.518397636,-0.905006047,9.957234055,0.384327409,0.225534999,-0.022478026,3.039440497,61.8575112,1.028733506,0.839051108,34.58080518
1738853009,446.9937636,-0.175726293,0.047753795,9.252210526,0.021029363,-0.099185333,0.265552791,2.973149905,54.20352705,1.047442441,5.025621323,37.09848433
1738849926,310.0094667,0.2053184,0.695290694,9.450598034,0.337636305,0.074424163,0.199983038,1.03169389,21.98577745,1.041093966,2.779142114,98.74504161
1738849632,692.0173835,-0.928822367,0.959260466,9.428512705,-0.27649999,-0.1110098,0.166684947,2.026947869,28.59669111,-0.032336841,3.220548339,3.979758332
1738851106,541.9580314,-0.947936301,0.726726583,9.75523418,-0.271173499,0.176773954,-0.35223107,-0.024992156,22.47513622,0.007422999,0.840548054,86.6805572
1738851222,487.9597272,-0.84898989,0.720439133,9.394186072,-0.145862042,0.25788106,0.243161269,-0.034196426,70.9000612,1.024627466,3.853492567,57.85288002
1738851684,407.0347545,0.972390856,0.564534796,9.123308557,0.107948015,-0.061309537,0.203787002,-0.029306739,45.14012534,1.019974215,1.43818401,43.84953542
1738853992,698.9910381,0.563714701,-0.637729137,9.858591901,-0.041886546,0.291713466,0.353535402,1.988363802,60.68452919,0.034198036,4.548875434,72.51580388
1738850018,569.0196024,-0.714896634,0.940502486,9.918173173,0.244236304,-0.016312465,-0.256857908,-0.013370158,92.63025948,1.014480462,1.448140908,48.6972639
1738849801,639.0235673,0.161182232,0.273304838,9.089876986,0.064403664,0.115661581,0.114709023,0.950146554,39.96658672,0.990643694,1.375425337,87.36490483
1738850484,961.9500001,0.742561551,-0.466183644,9.048688974,-0.288464886,0.496255442,0.057004024,1.957611742,52.8215048,0.013969811,0.694435637,90.06917046
1738850888,363.9685031,0.734543889,-0.821965004,9.507961194,0.29607491,0.031371647,0.038088886,1.987056752,80.45362109,0.980668963,2.664413218,42.12660977
1738854077,985.9737673,0.53683432,0.086652784,9.939812426,-0.296751438,0.073685507,-0.442500014,4.006469305,38.34699252,0.950286141,3.00818847,27.72255778
1738850891,879.9599151,-0.064828775,0.686892525,9.878493572,-0.233982732,-0.339564994,-0.410320307,1.028075392,26.15506635,-0.029280695,0.759470672,59.185183
1738850959,878.0135368,-0.258787306,-0.564150522,9.713890237,-0.459832074,0.438729618,-0.176958214,2.015803356,43.13373882,-0.04134495,4.031103284,91.18833254
1738850643,578.9606869,0.024436101,-0.478581604,9.45058891,-0.537089537,0.154253382,0.393066899,0.95180954,32.92626424,0.02231288,2.5059185,21.05533858
1738853762,641.0134671,-0.721761061,1.019441156,9.037457503,-0.189591096,0.197534894,-0.193863964,2.956706747,94.36324675,1.049720138,2.88796862,62.33144526
1738850295,510.9740209,-0.571249349,0.953105387,9.154350799,0.265695287,0.131655291,0.174277692,0.997494082,84.60248666,-0.032111484,2.437694944,63.19384374
1738851876,667.0073171,-0.968298233,-0.244260573,9.551260301,0.058727349,-0.183904005,-0.139372015,-0.042898,70.66620784,-0.000551664,2.279124957,73.29958675
1738853154,312.0230626,0.159895414,0.062627741,9.152135921,0.015244051,-0.007429203,-0.144807133,2.969627453,89.68531703,-0.026219279,2.994887825,13.18469423
1738851676,890.9658638,0.698342546,-0.780970083,9.307946191,-0.202679115,-0.238189263,0.113199646,2.963588288,84.26134162,0.045834207,1.233324115,71.6194791
1738851647,842.9724054,0.878621345,0.993086437,9.369138746,-0.512944999,-0.101304874,0.240660684,2.035439734,34.92761231,0.037720201,1.33339539,90.9015521
1738849793,309.9585843,-0.804824914,-0.971646439,9.438647032,0.094768372,0.064216721,-0.143867765,0.0255567,91.44482182,-0.014379023,4.347964933,17.98861658
1738851904,604.9873947,0.781064898,0.6856407,9.844254063,0.459965872,0.233907363,0.179816021,4.039511392,63.10256392,0.953611481,4.736874475,23.77168526
1738850923,415.9595252,0.244704795,-0.964146443,9.685196018,0.059093293,-0.481688617,-0.26714401,1.019260932,84.5788311,0.973680586,2.141062217,97.18213083
1738850610,846.9538022,0.471210494,0.545520504,9.749432433,0.308390596,0.324396387,-0.140028215,1.04588014,91.66802467,0.049929244,1.688323379,18.08040009
1738854369,988.9560283,0.562533332,0.168744025,9.328450966,-0.098440715,-0.413737887,-0.039829034,3.961854621,45.48968816,-0.030785105,3.376027172,85.47902083
1738849752,981.9837378,0.467229769,-0.226190546,9.576368501,-0.115282065,0.004984565,-0.398741661,3.996064573,28.78478486,-0.026456009,2.297398356,49.23919717
1738851833,516.0425893,-0.459913816,0.855161642,9.221886791,-0.313905001,-0.078618521,-0.23258151,0.013098309,38.19889303,0.952987285,0.567581641,24.73578876
1738854302,532.985742,0.068064387,-0.17230623,9.994996901,-0.346042815,0.173254649,0.0560581,2.009356773,54.13469828,0.992492395,1.215887332,87.09996284
1738851773,887.9971459,0.451115369,0.550997107,9.55876331,0.285901401,0.246436085,-0.433154791,2.027017324,85.44837747,0.967984354,3.770573294,44.50044848
1738854324,664.9907413,-0.974869224,-0.992461053,9.386426619,0.432320372,0.362948258,-0.088357017,3.00291806,88.87436351,1.023978582,3.421348186,51.50938728
1738852372,753.9787467,0.034320093,0.929569885,9.892171425,-0.124936335,-0.399126456,-0.220455155,0.983302894,20.59294263,1.015626618,0.625582787,35.95877648
1738852703,365.9718504,0.80013924,-0.766612249,9.834175069,-0.169007274,-0.017924046,-0.319517337,4.001521225,60.90095174,0.953624968,1.540954436,59.28601919
1738853809,964.9875291,-0.837050746,0.453536796,9.229293565,0.057093147,0.492819352,-0.113397423,-0.045075505,53.40287664,0.965201492,1.535257607,16.35111326
1738852660,672.0141035,-0.877743799,0.396099641,9.114611348,0.040132943,-0.423100553,-0.325332053,2.022915279,37.78611738,0.975151508,3.505076589,39.13581959
1738851526,723.0021683,-0.199568778,0.080818707,9.142149595,-0.336975176,0.213496882,0.387727318,1.965197434,29.60135322,1.03545018,0.606082279,96.94521629
1738850928,815.0477559,0.156696248,0.15952042,9.325466955,0.238131689,0.358256352,-0.410090089,3.995668755,47.04565166,-0.026186189,0.930987167,25.84487285
1738853521,671.0079561,-0.446495791,0.918099332,9.358495335,-0.205312461,-0.211108666,0.359363809,1.988550373,95.38410848,0.0404364,4.086648123,65.71931331
1738853615,575.9603273,-0.975124291,0.403477232,9.085618004,-0.425523142,-0.264523714,-0.319121194,1.998598666,45.84927486,-0.02086793,1.291002127,32.5505455
1738853998,548.9855928,0.560243453,0.839708542,9.275672992,-0.071358957,-0.350350695,0.211051964,1.966591499,61.50429933,0.020496475,3.470419357,77.31070105
1738853110,917.9674093,0.31741341,-0.894303467,9.509248788,0.059727022,0.036089392,0.240706237,2.031951853,76.27844014,0.958268995,1.601975276,13.10077354
1738850517,712.9992074,0.940558985,-0.092599725,9.168883137,-0.494572997,-0.043724031,-0.457722016,1.967434561,49.10116933,0.967442856,0.982581849,96.94057754
1738849732,927.9521386,-0.040974351,0.956459383,9.393435803,-0.282963061,-0.221953474,-0.079536887,0.997048346,97.74129722,-0.003368684,1.583759332,45.3905694
1738853251,735.9708576,-0.227420225,0.082772494,9.836281851,-0.300895793,0.069159831,-0.332677086,4.032731846,97.0241123,0.984468231,3.703809397,23.58620461
1738853374,962.9847156,-0.639376027,-0.850100526,9.748813327,0.022906154,-0.35738698,0.43914701,3.014151529,40.10659505,-0.024407513,4.310345827,7.356956858
1738854431,371.0130088,0.557810567,0.636720674,9.902276544,-0.320349457,0.158245959,0.097781767,3.997299628,59.76428711,1.02162937,4.212853619,16.98300162
1738853452,318.0163309,0.863007447,-0.520229691,9.371387496,-0.312094765,0.393499934,0.520408955,4.022470973,44.06848474,-0.013766573,2.294133776,51.96097979
1738854040,974.9625177,0.466084564,0.042161875,9.684668456,-0.274124054,0.040182684,-0.256420303,4.01295519,42.74089578,1.025215729,3.486320932,33.72233315
1738852791,454.953154,-0.062682389,-0.773612473,9.520386883,0.255726317,-0.055295111,0.287174248,0.952222817,22.99661043,0.993540794,1.438068911,82.88990035
1738852527,671.0009215,-0.164991835,0.141654447,9.681197946,-0.412177231,-0.401508492,0.187089481,3.031457121,68.74101158,-0.002595218,1.823724363,43.08296212
1738853133,303.0175279,0.543426443,0.149559623,9.486538437,-0.540846736,-0.228145869,0.058010316,0.015134239,60.19181081,0.996918428,4.559123245,24.88776428
1738852440,337.012466,0.240995398,0.628195938,9.76694251,0.008206437,0.340538858,0.048820517,1.958801383,24.0690514,0.014612459,0.587211672,61.72210523
1738852128,734.95193,-0.956571406,-0.903877347,9.608070695,0.055049996,-0.148961929,-0.377519003,0.019752455,42.27045224,0.044271186,0.84592631,70.70717962
1738850972,326.9877279,-0.437198123,-0.725727594,9.706349142,0.459546535,0.226286623,-0.010730044,1.004853278,92.63045096,-0.009462275,1.424264301,16.69623189
1738853460,645.0084932,-0.891884712,0.238372154,9.892494533,0.193275513,-0.175515447,-0.474685864,3.953286524,39.13165515,0.001844604,0.575418985,16.76659612
1738854226,842.0246628,-0.231113098,-0.104883765,9.706147263,-0.484726457,-0.131660757,-0.13825374,2.045950976,31.57768012,1.0184374,1.345862027,3.6762479
1738854455,656.951834,-0.854082364,-0.399440119,9.144531657,0.515794785,-0.341541525,-0.123564891,0.996273158,59.16905171,1.049048045,3.162488203,73.5912282
1738851413,685.0401206,0.95252654,-0.730559353,9.945801864,0.206523601,-0.460139064,-0.115730234,0.039510051,98.89794748,0.99345465,2.40096944,66.36558615
1738849561,854.9616696,0.420135326,0.037217691,9.853433599,-0.082811749,0.024962923,-0.495415619,3.99889432,39.37801214,0.032709309,4.504967701,47.49520871
1738852447,624.9775008,0.346956324,0.520335094,9.611781282,0.176340773,-0.195741589,-0.11188492,0.025461712,73.79485784,0.973500055,4.220257665,84.43245669
1738852400,780.0044058,-0.364922182,0.793338503,9.806935052,0.53516524,0.269506767,-0.284375692,3.957994343,80.90296759,0.041484446,2.064460194,80.57911891
1738853217,760.9989517,-0.091143516,-0.959938201,9.218701488,0.334774757,0.015856925,0.039197302,1.042279474,39.05707874,0.96791961,1.693299925,58.52993905
1738849697,695.973272,-0.495882345,0.570593541,9.975855515,-0.440920975,0.102494087,-0.070884629,1.003846684,78.23725618,1.039862455,2.174872128,86.85232034
1738851657,639.9957604,-0.901940121,0.817291854,9.312587399,-0.216288784,0.208534414,-0.038052047,-0.043046922,49.4674109,0.965307073,3.113672879,20.58073316
1738852696,893.9681359,0.489169627,0.50972415,9.149205661,-0.034936068,0.089277805,-0.084720587,2.971917038,70.6161297,0.00360895,1.67612997,11.20545583
1738850394,398.0325814,-0.604593706,-0.553113201,9.87193895,0.096539561,-0.408934131,0.315025104,2.95207207,70.69276512,0.985356505,3.341872262,26.93947631
1738850681,913.979882,0.34654538,0.943372949,9.811573344,0.050820539,0.501146482,-0.133621568,2.951983674,62.89685049,1.029946269,2.36601317,5.683967687
1738849704,756.9666094,0.867404002,0.538177322,9.037902997,0.225246137,-0.410271995,-0.39906679,3.011182917,27.21207048,0.017882391,2.971708053,53.13556035
1738853144,733.9995006,-0.29063239,-0.253346112,9.364170619,0.412545701,0.112650037,0.356789644,2.973623408,86.87253217,0.96372346,2.501177185,93.69194913
1738850605,943.9587353,-0.695412083,-0.14990268,9.618116716,-0.143049249,0.311174141,-0.435739388,2.985560876,45.70378525,0.031071236,1.843369898,3.910073531
1738851143,715.9673695,0.47180808,0.756207869,9.300117625,0.530288338,-0.049826715,0.097535989,1.002146676,34.96724346,0.980267096,4.780132897,12.24036827
1738852561,692.9807449,0.917788281,-0.921906092,9.928887332,-0.009149936,-0.131610741,-0.524560073,0.975246312,23.25325028,0.031434223,3.932090562,45.2165515
1738851582,343.0422845,0.423955907,-0.106093972,9.156262687,-0.041257144,0.246192694,0.055253324,4.032031278,67.29564308,-0.012483138,1.093028364,93.35088624
1738852971,342.9753877,-0.6819657,0.537162552,9.601582436,0.122092763,0.000391358,0.448300399,3.985712686,74.19674433,1.022783391,4.430440545,31.60288892
1738851360,551.0166584,0.929613995,0.07026691,9.219046557,-0.165636389,0.016330198,0.263445238,1.001859025,21.3420794,0.000715096,2.686758999,50.7512427
1738852249,541.0381532,0.060467512,0.765751161,9.321643789,-0.073419357,-0.124514403,-0.047779943,2.007234065,60.93324157,-0.040218236,4.483036239,4.11252854
1738852592,437.9505272,-0.053754041,0.661035303,9.946109554,-0.403552575,-0.281398957,0.190318626,0.016592747,38.15961369,0.00787992,4.148688532,14.8809344
1738850025,669.9505964,0.133156479,0.657325984,9.792092759,0.455477387,0.316495872,-0.031420081,3.022731066,71.60480793,-0.043983561,2.41984318,98.68412725
1738852842,863.0197441,0.652865082,-0.366198066,9.57824093,-0.222081641,0.04726838,0.323205279,2.015870094,33.92317184,0.039644621,0.632839492,96.4677504
1738853627,742.010452,0.635441965,-0.940845837,9.341065466,0.15185423,-0.088411789,0.522753535,-0.014214543,75.25028445,0.002727146,1.740312637,0.459094879
1738853049,974.9603534,-0.002537796,0.515937968,9.162508319,-0.016414043,0.256620568,0.033093223,4.028956383,50.97316397,0.996178296,2.978676556,95.13935105
1738849832,652.0451958,-0.265583401,0.125958285,9.363571808,-0.151491117,-0.438898338,0.105495871,2.959111983,94.97468561,-0.001227853,3.339505381,63.88081702
1738851294,631.0112771,0.425461286,0.627335394,9.972857805,-0.493605036,0.15800116,-0.434945089,2.014307647,31.0019772,-0.023708982,1.663885001,86.83584042
1738854177,401.0098434,0.080350581,0.244038824,9.750215075,0.474959473,0.063787996,-0.479900136,1.987733095,47.29135628,0.960120444,1.114428714,45.44219099
1738852439,337.9977544,-0.162656975,0.098046814,9.528099906,0.473552298,-0.527569002,-0.272546248,1.026347424,29.04266971,1.007091265,4.301801081,51.59020128
1738851494,863.9825797,-0.1191415,-0.957771191,9.734273847,-0.321286236,0.256025342,-0.310295235,1.000488351,93.97032456,0.980991814,4.941992711,48.8685659
1738849653,667.9849956,0.006183774,0.491238109,9.18548309,0.066701155,0.453500652,0.17089989,2.016412403,90.2253161,1.034081015,2.819192184,66.67950209
1738852357,346.9695264,-0.206134638,0.515341433,9.772786569,-0.302092274,0.232240085,-0.086466668,3.00064454,40.64384944,1.011003157,1.250370054,13.92591141
1738853123,870.0071142,0.514473138,0.21935774,9.632735543,-0.506106673,0.334750757,-0.062201837,1.996946553,72.78488167,0.970371974,1.750133958,2.968661627
1738853237,967.0442897,0.614763258,-0.535052282,9.650772957,0.0667388,-0.021974217,-0.194644172,0.003115253,85.34723547,1.041768596,0.614433031,30.77878989
1738853214,328.9941374,0.097778889,-0.989772725,9.83564848,-0.172901106,0.003991255,0.331252798,3.958254085,64.41815157,-0.020424864,4.622623713,70.47712574
1738850083,776.0181437,0.797588842,0.737356809,9.450244245,-0.260871172,-0.177636692,-0.337867458,-0.032643292,62.36931059,0.015617525,1.025580479,20.1500753
1738851439,553.0169426,-1.005415316,0.869394479,9.123474465,0.128958086,-0.519686515,0.240109088,1.976949135,39.37318131,0.971198203,3.134994188,67.35161572
1738850234,817.0449869,-0.182002668,0.407006492,9.446109771,-0.414893901,0.409680102,-0.196804305,3.008695046,27.49706403,-0.009140765,1.744397582,97.03759813
1738853347,313.0443379,-0.276947081,-0.795904293,9.788694985,-0.154797398,0.13144211,-0.496544844,-0.013673624,91.74224564,0.001649397,2.990886242,9.344566537
1738853497,916.9893177,-0.301798889,0.317649571,9.201156356,0.098908338,-0.08585858,-0.069665762,1.985192061,92.04893697,0.034248357,3.440644565,67.30723279
1738854219,530.0454299,0.518692548,-0.473130572,9.873301878,0.312456253,-0.175334876,-0.345740971,0.033373733,70.65626468,0.991247186,4.270521873,44.36295806
1738851571,588.0096752,-0.220636047,0.426655951,9.56308452,0.365483473,0.281907014,-0.196380437,3.986450445,47.08280168,1.041523019,1.429431641,86.8553573
1738850649,992.0125373,0.460188964,0.489059668,9.802264518,-0.416910857,-0.01382487,0.274047841,2.048352915,47.9009586,-0.016768569,0.578397296,17.72319939
1738850382,461.0018239,0.789822877,0.232771135,9.059788843,0.01970076,-0.379786423,-0.044927222,-0.024815236,78.12329798,0.998358864,1.141875808,69.28207263
1738852358,640.9559746,0.388303903,0.766107222,9.440726831,-0.383660285,-0.109511166,-0.430802786,0.034158887,91.80033824,-0.045443462,4.503408824,83.78497728
1738853382,672.0051278,0.351173627,-0.83104762,9.458060755,0.237127853,0.174815972,0.104873739,3.950511858,90.92872511,-0.009416748,4.444308984,94.50877964
1738853934,392.043026,-0.877091295,-0.473581685,9.087535446,-0.436253624,-0.398582944,-0.289226068,0.007351452,82.37173577,-0.034759285,3.1824827,68.35692035
1738853444,983.9651931,0.578855295,0.970554037,9.264018399,-0.512425665,-0.149177501,-0.363892028,0.96187508,71.35463553,0.027644464,3.191400191,49.67877343
1738850317,446.0221228,-0.90095055,-0.667810607,9.478528233,-0.39452306,-0.376921522,-0.301001022,3.957038591,26.70744321,1.008945506,3.456829128,61.78455698
1738852320,472.9895701,-0.3093913,0.430554033,9.031737181,0.355828588,0.174733696,-0.117829798,-0.01473013,32.97684471,1.048577745,1.242711792,86.93048223
1738853881,832.9730916,-0.165700643,0.892578867,9.588324079,0.20793477,0.053886112,0.034773319,-0.043093502,91.91548907,1.043796215,4.640044608,57.01116836
1738852848,822.9722322,0.294671997,0.847248001,9.66528749,0.182390847,0.18268901,0.178459335,3.019298521,68.48217953,0.038462587,2.398551373,3.056005522
1738851747,366.0173745,-0.606433496,0.817136366,9.32876878,0.114758575,0.092161017,-0.325399255,0.003369498,20.76781974,0.994782437,2.188054812,93.12797578
1738851910,890.9974687,0.773808452,0.959701819,9.635845538,0.07922335,-0.128461007,-0.355663915,1.0112019,28.10136333,0.022697416,2.872272966,68.97047427
1738852978,927.0117948,0.228983614,-0.493027944,9.137750284,-0.139494344,-0.004214146,0.035731989,1.971416752,73.03336963,1.04493881,0.729936837,67.61490679
1738853532,913.0080258,-0.232059153,0.015336438,9.830288357,0.346729376,0.12547084,0.22304038,0.04368601,20.45490134,0.034689252,1.225005556,21.59357173
1738850464,543.0075767,0.77172128,-0.554997283,9.430676695,0.444182749,0.205364069,-0.373285657,0.989423089,32.87344891,-0.004440424,3.829767288,65.89646853
1738852698,426.9875501,0.90369218,-0.770893406,9.78674527,-0.203407899,-0.15936981,0.203327433,2.952836494,63.85362174,-0.047849194,0.862670533,39.37766267
1738850552,718.015004,0.570851566,0.93048842,9.806981652,-0.339959352,0.076252028,0.348482167,0.042363804,75.3208455,1.012321477,3.210301718,65.15220346
1738853206,661.0223968,0.520743806,-0.871249428,9.023636221,-0.145692969,-0.196912711,0.016672176,0.994413556,72.15284261,0.988651434,1.612930133,10.68909757
1738852036,906.0406706,-0.791334048,0.229428416,9.542295399,0.238080711,-0.354208692,0.484462083,-0.031980113,37.93732883,0.989423575,2.273961675,65.80313714
1738853629,407.0147991,0.740212654,-0.39554268,9.478858983,-0.032930875,0.527978339,0.092094796,3.985111622,76.93615991,0.972490214,1.805205489,99.94038117
1738851923,767.9764901,-0.366302781,-0.756858916,9.621630206,-0.142889362,0.082689989,-0.070223762,-0.008793541,38.9601669,0.040969593,2.05094825,4.852826944
1738854391,581.0287464,-0.858506082,0.672039216,9.368866037,-0.251465326,-0.204039438,-0.46417826,1.996760703,46.03567929,1.049855297,3.772010726,97.67418138
1738849586,976.9860156,-0.795830495,-0.481129683,9.849693444,0.446103495,0.160063732,0.285066858,2.958363796,79.72922821,0.971467014,1.841427381,40.67821644
1738853342,899.0094022,-0.316449846,-0.355200464,9.376103456,-0.003022964,0.297325063,0.093590478,0.047130096,71.93614703,0.045648499,3.054441413,87.04486321
1738850573,975.0238369,0.475539563,0.999714432,9.518304325,0.153686388,0.212714137,0.040034908,3.03059025,87.93109488,-0.04809803,2.638584911,78.24277617
1738851200,788.0439535,0.674103162,0.939985619,9.549103778,0.208686457,-0.129985152,-0.170674553,0.016263205,72.63444138,-0.008408726,3.472605959,56.65569242
1738850286,943.0130936,-0.053040705,0.285736584,9.925624349,0.46818693,-0.055627581,-0.288773992,-0.043263156,65.47375124,0.95424994,4.703529263,73.88218383
1738854135,925.9883769,-0.447881706,-0.627873616,9.132325023,0.151044544,-0.436981069,-0.107933819,2.033278741,27.50583997,0.026567729,3.843243275,87.86506009
1738852827,902.0284324,-0.774968663,0.915201096,9.842119118,0.405990801,0.086028881,-0.297032767,2.98114647,49.45825158,0.046085284,1.490030407,40.40907221
1738851173,936.0254273,0.32756081,0.067747682,9.212580244,0.140728114,0.375325551,0.010736429,2.996585574,41.18005852,0.017560538,0.608571519,32.70052564
1738852688,570.0088442,0.844994154,-1.036482809,9.595019737,0.382686126,-0.285085952,-0.267883808,0.045357822,39.48042596,1.007885661,1.632862236,66.75156471
1738852242,976.0250704,0.893007875,0.849324038,9.708586843,-0.303207937,-0.306738027,-0.02488375,1.998752553,97.8126316,-0.022473649,3.198310427,80.79095959
1738852260,492.952635,-0.944031944,0.632118473,9.083575873,-0.458908018,0.07912508,0.018313043,4.013370262,51.47661741,0.957021029,0.753306256,76.21973262
1738849850,309.9688761,0.808836459,-0.756475537,9.326941738,0.070554368,0.218977004,0.422601217,4.016535898,91.33267505,1.029229352,2.750739269,79.80642923
1738851892,743.0024615,0.749730797,-0.857891479,9.381153189,0.325787137,-0.050151421,-0.340498123,3.027584227,70.51224338,-0.007862998,3.214144526,43.53263251
1738850206,300.9890695,-0.654299441,0.746761996,9.31309967,-0.334031488,-0.11657565,0.393494581,0.954327885,83.60186617,0.012933684,2.039692208,81.82761979
1738853327,557.0059534,-0.279872413,-0.191783052,9.149496042,-0.046226219,0.472978464,-0.44249831,1.956180623,60.24371145,1.042796436,3.92306453,11.97654063
1738850808,402.9811718,0.761532205,-0.155344134,9.207526296,-0.027405324,0.183006681,-0.377155091,2.020915344,66.20129231,0.00194914,0.975323604,54.40194627
1738854073,994.9988208,-0.07496034,0.664877994,9.615390513,-0.256083492,0.187320401,-0.204576765,-0.024882191,59.42877228,-0.04915873,0.835860685,0.540543814
1738849783,871.0159163,0.008081457,-0.590681417,9.232598666,-0.148387607,0.464314892,0.143791499,-0.007467643,35.6394157,1.002488169,3.795797888,32.42855809
1738852829,590.0271638,0.482214743,-0.065382909,9.945155866,-0.119439717,-0.010677072,0.30858029,2.005846653,77.82004391,0.987741135,2.742712741,36.66565615
1738852783,998.9805724,0.863790634,-0.393199891,9.205488677,-0.472525278,0.126625391,-0.226109596,4.016453557,42.45380732,0.009859076,3.571078224,39.64105644
1738850244,549.9727757,-0.866456293,0.896569781,9.332742031,-0.129735696,0.121736987,-0.327683188,3.019656326,21.90747934,1.048443634,2.425339482,69.57608718
1738852307,748.0124416,-0.916212086,-0.303764964,9.749308252,-0.058097805,0.375676459,0.230178317,-0.030838039,71.60207375,-0.049322786,1.641222426,38.80672377
1738854416,470.9863195,0.155178125,-0.971441419,9.210359104,-0.26477342,0.352050594,-0.4730522,1.990888165,34.1245763,0.045263687,4.193178274,44.84254189
1738850522,805.9790878,-0.62062548,0.673372853,9.00606038,-0.418774547,0.283135469,0.364443536,1.016108046,95.2064248,0.03578616,4.13456884,23.74389123
1738850186,964.9755446,0.720490927,0.517897849,9.02605964,0.321353688,-0.47030454,0.329631571,4.029737428,96.29388556,0.954308407,3.606588141,37.33362574
1738853645,699.9515372,-0.57054511,-0.130331752,9.745515436,0.332494359,0.494620735,-0.141143707,1.002811261,93.16854619,0.019871634,1.740937667,22.68867521
1738853630,957.0075067,-0.734120752,0.434307241,9.579990123,0.138444092,0.429726974,0.010239883,2.038329018,49.63310963,-0.005342376,3.155763571,7.339120215
1738850874,889.0093487,0.61336811,1.003257373,9.8967895,0.364813882,0.444910739,0.320624436,-0.039628788,21.28467821,-0.014756111,2.117233868,60.2949323
1738851384,522.9549043,0.604204002,0.144062563,9.199395068,-0.243931828,-0.195291883,-0.004591519,4.030206387,94.30334353,0.985162326,0.903570975,66.81901184
1738851731,753.9723414,0.930686742,0.729867341,9.736640419,-0.353885121,0.424323475,-0.492862253,-0.002219941,54.23600035,0.983931008,4.604004499,61.93573905
1738850970,939.9773214,0.032826327,0.362691021,9.130481504,-0.153678835,-0.123807608,0.222098337,3.965117337,97.37485277,0.977129273,1.075005618,46.30747661
1738851335,501.9768185,0.489851322,0.993681966,9.204101207,0.213072239,-0.400750275,0.367853231,1.975572907,97.08776482,0.998059857,4.825142013,37.93255818
1738854268,344.9627314,0.68460306,-0.40170096,9.024810834,-0.022821616,-0.42454714,-0.40850594,3.031022688,88.25703127,1.04913517,2.493144427,86.35421824
1738854254,593.0440621,-0.833344842,-0.338948468,9.315457835,-0.136311756,-0.316705341,-0.122793579,0.9929927,43.53517076,0.025013578,1.286065704,51.93925786
1738853671,556.9814989,-0.869317708,0.310654571,9.373596867,0.29598012,0.092954939,0.225199477,0.005311677,50.84959613,1.006998216,2.905055785,47.89747616
1738851205,465.0195946,0.066333027,0.205996892,9.975600892,-0.125537131,0.301516894,-0.0301412,1.023152643,88.08928062,0.953705014,4.423935081,2.60526675
1738851036,753.958131,-0.48632629,-0.961477665,9.936301238,0.382719178,0.301165415,0.006075672,3.985065808,45.37967346,0.964871304,3.806589931,34.11722985
1738851828,865.9501729,0.132126033,-0.058165404,9.052360151,0.480338819,0.41977826,0.151386542,3.046627914,33.55847231,-0.042765805,4.173001571,38.01270816
1738850430,557.0366394,0.135417158,-0.446073727,9.625463982,0.364782732,0.196756988,-0.034736057,1.968647672,64.56228568,1.046920909,3.415228235,39.83922743
1738853078,896.037196,0.443037957,-0.854649837,9.686754593,-0.210249485,-0.169546307,0.157962279,2.033155929,94.9368214,1.038153331,3.641010319,58.01313973
1738851569,529.9564971,-0.047017546,0.455075201,9.527537143,-0.142300081,0.151165762,-0.093671685,1.00162879,75.73015649,-0.002041906,4.30367043,53.34739336
1738849979,684.9518331,-0.323913597,1.006877358,9.861069591,0.394262702,-0.033463059,-0.047721234,1.972259313,65.56931772,1.029511841,1.596642423,60.7800882
1738850179,556.0297465,-0.144024655,-0.583232169,9.217070693,0.13097401,0.474356805,0.356401169,0.036530804,27.76440339,0.005503951,2.655772792,76.47038559
1738851142,779.9993243,-0.70696489,0.274027595,9.65939727,-0.259355768,-0.025325816,-0.234760148,2.04744799,69.17286126,0.0095416,1.533805905,81.33380911
1738851776,895.0250491,0.045854718,0.329871741,9.737131556,0.210300733,-0.228748282,0.386777188,2.013552464,99.23128942,0.011040088,4.955560972,71.78355929
1738851770,409.0452752,0.069020046,-0.989166701,10.0166067,-0.513016261,0.107113052,0.021901,4.047462597,31.22077557,0.008921386,4.70700764,95.55981374
1738854036,739.0111245,-0.375503927,-0.186095828,9.17802128,-0.048468132,-0.146675104,-0.239611655,4.029122145,61.43338218,-0.022531242,0.629272471,1.776705737
1738851038,967.0390876,0.731028283,0.641157555,9.122225693,-0.453351544,-0.246637797,0.518546721,4.047138325,90.15590389,0.964691296,3.635243114,19.56251561
1738851292,492.0495477,0.320835071,-0.865779913,9.705469886,-0.097556505,0.448838011,0.415472751,1.02318134,79.23065315,0.02529861,4.625852656,0.767733935
1738852033,515.0292412,0.351359068,0.091841033,9.553341265,-0.08585119,-0.060315547,0.130048937,-0.028473996,75.76926337,-0.007227856,1.273649158,64.70619405
1738852137,306.0380185,0.361586229,-0.673169567,9.594662504,-0.466549851,-0.50401546,0.119500912,3.007393334,76.16513158,1.046854819,3.052812889,89.83612723
1738852446,777.9905803,-0.666526229,0.594390127,9.682909585,-0.276203593,-0.260094442,-0.234502783,1.998693852,48.77216269,0.010838045,4.606154466,24.35526952
1738849702,656.997326,-0.306928286,-0.363655817,9.83643776,-0.308261754,0.196714439,-0.130313966,2.958367864,43.48764361,0.954102396,0.674476173,92.69892263
1738850229,613.0410474,-0.572207234,-0.175293966,9.6681203,0.245473984,-0.070141426,0.402774946,3.012653528,84.70392844,0.986004428,3.615675246,6.020929554
1738850814,502.9924518,-0.614843834,0.407751215,9.729357243,0.345541238,-0.184276415,-0.45247788,3.96566256,84.77951755,1.021361962,1.791619661,93.43009295
1738854470,329.9649872,-0.360236873,-0.408857397,9.420112058,-0.173001421,0.439197577,-0.29509797,0.991864602,89.38444766,0.023032816,4.638515088,35.12422197
1738849565,841.9843651,-0.054040468,0.309099878,10.04103386,-0.376514098,-0.094967242,0.413468549,3.962291445,93.09713024,0.03140782,4.890530997,10.11699301
1738851386,706.0101848,-0.756769225,-0.536504441,9.950016867,-0.189634805,0.102119931,-0.067540152,1.047313042,60.93647478,-0.045427981,4.749927522,48.60623129
1738852801,799.9630735,0.351538892,0.374391826,9.496702307,-0.504634995,-0.315672649,-0.057001801,2.0158604,60.14478858,0.963282724,2.651005715,25.68902424
1738851044,981.9703812,0.824333611,0.243836444,9.816882543,-0.113079527,-0.190589693,-0.164010634,-0.027936772,83.83825281,0.036542207,4.351899074,28.44379438
1738852280,793.0114805,0.449585568,0.846713045,9.864566844,0.196291443,0.071679362,-0.362311037,3.024512788,71.97860635,0.044503299,4.259857561,30.7736102
1738853239,779.0021481,0.716650754,-0.317983609,9.643321804,0.336043127,0.003472889,0.159475512,3.028395384,76.13480236,0.038074,1.954401839,80.34470723
1738850977,409.0195035,0.471188177,-0.800249913,9.966498472,0.074447038,0.405831225,0.176727878,-0.033539923,83.64804388,1.047398031,4.230973056,53.93691186
1738854158,575.9772741,-0.099981891,0.577497008,9.37605112,-0.114804394,0.242847287,-0.124388204,2.016770244,91.22136619,1.044929306,0.656510995,31.12374565
1738854148,885.0258345,-0.398331785,0.204593307,9.444274965,0.407186312,0.153673188,0.483023571,4.015806325,47.00604804,0.012722968,3.136237744,61.08236066
1738850284,506.9811105,0.390187085,0.127265469,9.841895885,-0.51274623,0.042861622,-0.150036288,2.039566302,50.05396912,0.036373158,1.523420204,71.57161855
1738850784,886.0210927,0.199711988,0.406685149,9.697243854,-0.26777215,-0.035878801,0.298507597,-0.015927773,27.50021856,0.041112064,1.029723493,27.24729296
1738851187,589.0448326,0.133751762,0.179347665,9.213247847,-0.053015761,-0.164841812,0.306816008,0.979138139,66.28631275,-0.049448173,0.831606577,41.39181357
1738853489,910.994514,-0.643916979,0.987032832,9.102987719,-0.241760212,0.198205009,0.251395033,0.046367434,22.86389265,1.016891031,3.596230803,12.18667587
1738850763,913.0274872,-0.105624272,-0.623818285,9.031071324,-0.003791902,-0.032728969,-0.295365494,4.020907882,57.20702947,1.004435044,2.025740705,18.16443545
1738852821,313.9675631,0.881271836,0.688845121,9.486961946,-0.423467318,-0.1730002,-0.289283187,0.00577796,63.43393614,0.965614076,3.767771276,68.11616779
1738851487,390.045815,-0.299982359,0.693187073,9.735408966,-0.50944829,-0.02620376,-0.182316547,1.960872199,42.94199001,0.969769994,0.829394442,18.11027972
1738850106,327.0124014,0.390280901,-0.386293598,9.90615787,0.481050484,0.003138391,0.180479274,1.990758553,67.25426979,0.001377099,1.886246579,52.56112734
1738850044,615.9747337,-0.726899685,0.193142697,9.969794233,-0.468303318,0.466125864,-0.304971556,3.00642754,22.42785704,-0.046753,2.895663454,70.8617295
1738852515,346.0411893,-0.756281489,0.540285734,9.088680448,0.1522311,-0.399901522,0.424858994,0.952462905,22.95867987,0.048396823,4.098207779,10.7264067
1738851882,757.0124079,-0.764534181,0.144318646,9.038170123,-0.420720716,0.158752088,0.229798383,2.034129166,85.77507942,1.04653868,1.939768546,56.68995174
1738851748,490.9763193,-0.542337028,0.313683721,9.691736309,-0.160590895,0.443242107,0.042703185,3.95733582,48.81525485,-0.015143417,3.277976592,25.60938867
1738852617,814.0218077,-0.479048982,0.778305631,9.669997031,0.248769509,0.317833468,0.352557432,1.970035567,30.11798324,1.004378829,4.461428336,96.27808576
1738850210,455.9656306,0.392760184,-0.964540057,9.64530361,-0.4089418,0.097503191,0.304408929,0.00957019,61.74385118,1.005689101,3.308972981,48.36179967
1738851927,345.0170635,-0.858382165,0.881378244,9.585615206,-0.416859351,-0.412789055,0.063949159,4.012531843,81.60063922,0.046986018,1.562115733,80.59442321
1738851778,676.0350465,0.474613679,0.572861607,9.44183072,-0.455939299,0.112509432,0.288446626,4.027243357,37.24832708,-0.009045615,0.655833121,55.04713322
1738853817,372.9938884,0.533959365,0.871589737,9.603094957,-0.194102658,0.354468754,0.360746292,3.996611911,69.86845054,0.027889475,4.419291874,4.379375081
1738850723,346.0021838,-0.028604898,-0.810651376,9.585978063,0.21133855,0.217567526,0.168987741,0.029819198,26.79097107,0.97812419,0.615618116,63.35130328
1738849685,833.9611027,0.651253717,-0.47969876,9.80648771,-0.227516619,0.526648134,-0.404007089,2.021756193,24.12891191,-0.015329476,4.387077211,95.12361201
1738850024,873.0391635,-0.345067534,-0.679744411,10.02867417,-0.1079052,-0.098723883,-0.36291198,4.042004709,62.53279848,1.024009967,2.835833907,60.15403039
1738852778,714.0361258,0.248142292,-0.331013354,9.636719693,-0.328756875,0.058387845,-0.373821535,2.048355044,63.21861887,-0.007389529,4.714518541,81.87674554
1738850958,645.027533,-0.70058044,0.439548425,10.00151356,0.080641658,0.1152697,0.196832266,2.963031568,71.01620894,1.000385997,4.052823646,88.39280874
1738852429,872.9992574,0.097978518,0.842403128,9.155343339,-0.480596967,-0.336739449,-0.237436253,1.964161132,78.09289135,1.021768899,5.0018659,22.76139675
1738854057,640.9952751,0.56669882,-0.309218241,9.186273881,0.447093047,-0.464203476,-0.05700532,0.985503574,98.02871261,-0.012570573,2.085017081,21.21752835
1738854245,877.0378091,-0.866146643,-0.349628946,9.456859317,-0.518911172,0.488122949,-0.255848173,4.008011325,61.28141401,1.02888701,3.982249115,61.11648256
1738852379,875.9637174,-0.018526893,-0.201872472,9.866998437,-0.269223419,0.4673344,-0.142879125,0.037268459,45.83286589,0.981969106,2.295057771,41.15209206
1738849840,554.9680947,0.347678691,-0.845405385,9.168073735,0.093563233,-0.055340383,-0.316795014,0.02214383,83.65231371,0.039570915,2.695954165,83.95945868
1738851422,562.9685974,0.95438995,-0.662934172,9.969840272,-0.463229138,0.076840036,0.33100327,1.027398949,41.67110379,0.99140194,3.353651487,89.97894769
1738852667,829.9753277,-0.693555611,0.955931942,9.146999352,-0.263646556,0.185097063,-0.401692725,2.965675746,55.10207013,0.022601619,4.478152558,35.37272123
1738853178,980.0012365,0.331467353,-0.010867733,9.636411428,-0.013426838,0.403632577,-0.313101761,-0.026638798,26.24066994,0.980007727,4.940409428,23.64881684
1738851865,527.9815728,-0.282653752,0.050940392,9.290262236,-0.235784629,-0.33752814,0.161017044,2.985234137,22.04092738,0.028327866,3.978186782,78.04838389
1738854476,947.9925364,0.058760214,-0.770977313,9.89407618,-0.267588947,-0.321914988,0.386139137,3.016252175,97.01926815,0.02075354,2.427743872,27.4345744
1738851171,936.9986354,-0.230183262,-0.913347686,9.34550932,-0.074996963,0.29183479,0.305140859,0.003029816,86.84614455,1.025606385,2.401869794,82.27524218
1738850547,579.9565146,-0.615662338,0.666168628,9.240263489,-0.492516789,-0.011378895,0.207161027,1.035179052,75.66723397,0.980311854,3.771742472,42.34389198
1738851356,697.9732409,0.549589271,-0.430971844,9.083771437,-0.217698205,-0.22002775,-0.135977563,-0.020917754,52.7599503,0.984550634,1.609682532,66.71400414
1738852195,442.0158207,-0.302152073,-0.37051205,9.06066012,-0.404214512,0.162319382,0.026460991,2.987465503,33.89098095,0.958826958,0.980527064,9.556840265
1738854355,597.0448171,-0.17074698,0.270992659,9.966257213,-0.020107835,0.443918493,0.102303575,4.001990465,32.51547959,1.042480473,2.067247302,62.38210659
1738853088,822.000261,0.529378565,-0.110701696,9.018532445,-0.537221894,0.286232279,-0.461599831,4.027981382,39.98063027,-0.005227399,1.772059711,45.13929789
1738854384,591.0095547,-0.626487465,0.36531891,9.971527453,0.069485547,-0.080367452,-0.404057788,0.01654419,63.8983848,1.008430297,1.798932891,58.63292223
1738853464,474.9736284,-0.9433486,0.725950448,9.072780724,0.223947177,-0.005508185,-0.098011891,4.032043474,77.201078,0.008229667,1.56952234,16.82259422
1738851660,922.004774,-0.08236272,0.939933889,9.697862527,-0.338865963,-0.120736618,0.366296511,0.979664001,72.84109823,0.038965489,0.705185412,73.68832251
1738852597,471.0236718,-0.120720092,-0.785324249,9.604780278,0.107939206,-0.189726894,-0.109409648,0.007230278,42.351912,0.979527512,0.552077375,86.27347068
1738849969,664.9785413,-0.309544335,0.496625546,9.133341537,0.462049394,-0.115686152,-0.049845753,2.975280254,96.41443237,0.030416501,4.905796133,21.722302
1738850530,799.9517405,-0.191859399,0.789332454,9.278218679,-0.044728401,0.32924848,0.213589625,0.005574289,79.02704115,0.02818419,2.454016369,9.547017841
1738851970,746.9860906,-0.323928418,0.23813152,9.063977504,0.075641443,-0.207985528,-0.390508169,3.960940566,64.37008683,-0.013885144,2.225379828,2.405076813
1738850058,810.9837027,-0.198082055,-0.413677443,9.469132458,0.385785985,-0.403380672,-0.111818812,4.037113996,68.89956885,0.002812876,3.523556696,64.18150525
1738853705,632.0012794,0.392894755,0.752058513,9.542958776,0.032568828,-0.038746015,0.000367886,2.983339383,53.61219141,0.966620711,1.471028048,60.71927755
1738853808,346.0470081,0.656357382,-0.340442564,9.678737226,0.310331367,0.410511685,0.392975357,-0.022889018,39.78351851,0.019991403,4.790838181,54.69801064
1738853494,681.0374164,0.239943568,-0.265858903,9.832891348,0.154577454,-0.188697654,-0.032024741,0.003667581,48.51090666,0.985741166,4.016879051,23.16871232
1738849967,546.0013143,-0.100938054,0.369185611,10.00980139,-0.511578138,0.198055312,-0.401527436,3.950696509,80.5910122,0.994258214,0.8936985,39.07990801
1738853701,951.0398652,0.916329346,0.409217846,9.460794712,-0.086574428,-0.2453864,0.339990707,2.030666372,21.1044731,-0.038020997,2.393349532,59.44755184
1738850736,598.9832722,-0.744240762,-0.95234916,9.859627152,-0.300747696,0.451368439,0.285729844,0.976870723,29.27339795,0.961080923,4.461379498,49.65267597
1738850038,822.9735364,-0.447981577,0.449164557,9.164262,0.093393838,0.422595793,0.386740565,1.011854954,23.73005103,0.966299249,4.751594056,98.73305191
1738850446,507.0010014,0.111228394,0.415549372,9.094052806,0.364398538,0.38777273,-0.086678069,1.025553217,23.23890081,1.035242327,2.630440807,13.66321101
1738850358,605.0475086,0.539769052,0.061921597,9.558811212,0.140022011,-0.024869765,0.1032663,0.023680716,88.38696806,-0.041118914,3.286512487,69.48451214
1738850108,939.959757,0.279367272,-0.00992112,9.928586011,-0.25992532,-0.451484893,-0.229457363,2.018176423,76.30671649,0.968358271,1.28585322,40.38919493
1738853378,371.0374296,0.197542673,0.295098002,9.065859228,-0.40166495,0.509850328,0.145399931,3.965527407,57.94006244,0.989963975,4.952182187,42.86612084
1738850750,624.9528826,0.900346621,0.477384121,9.376097856,0.131129338,0.472902016,-0.295470184,2.038867894,27.83167275,0.992489539,1.501784192,71.73459194
1738853806,459.0096196,0.191404362,0.634301574,9.308066891,-0.072851051,0.467730335,0.313897223,3.006642869,59.31642003,-0.026413804,4.729098285,69.27122761
1738853611,908.0141281,-0.513873081,-0.732462315,9.827038863,-0.101969645,0.381550923,-0.438614572,1.965579611,57.88805378,1.043616309,3.395974874,99.11230269
1738850846,703.0231347,0.560373354,0.348846958,9.068391977,-0.059185081,0.094312527,-0.198821445,0.020691957,33.85351925,0.02604129,3.263789502,12.88757039
1738851774,450.0016917,0.360287737,-0.544216982,9.461031574,0.364329137,0.171357854,-0.325971289,1.973006401,54.66922547,0.047385051,2.770852686,10.45694687
1738853057,821.0294483,-0.63318977,-0.871169056,9.698434539,-0.108632008,0.156404955,-0.27346014,2.964954078,51.89751587,3.39E-05,1.546519472,72.41210134
1738853207,340.0313605,0.531068733,0.755900619,9.214866195,-0.428024015,-0.204917443,-0.001646524,4.040339772,69.30988871,-0.021192669,1.295357987,57.79569714
1738854311,422.9798075,0.329637543,-0.267013528,9.142215848,-0.039563098,-0.157845322,-0.026232552,3.966071125,70.84756795,-0.009721752,1.481755675,27.40095506
1738852559,548.9858486,0.325576305,0.254231854,9.31473028,0.024568062,0.059340285,0.16530921,3.974100582,23.59759314,-0.028120773,1.306560321,7.96872727
1738851646,707.0174876,0.00599288,0.872817148,9.545332686,-0.448143361,-0.455213807,-0.009845373,0.962696617,49.98647951,1.035436358,3.99223488,8.60030034
